time,seconds_elapsed,z,y,x
1772789550207754500,0.07875439453125,0.0020223751198500395,-0.0005665216594934464,0.004116645082831383
1772789550217820700,0.088820556640625,0.002174974186345935,-0.00045227259397506714,0.0014577449765056372
1772789550227886600,0.098886474609375,0.00046043284237384796,0.00008116941899061203,0.002730550477281213
1772789550237952800,0.108952880859375,0.0004931897856295109,0.0010209986940026283,0.0006980259786359966
1772789550248018400,0.119018310546875,0.004390598740428686,0.00042273104190826416,0.0017118407413363457
1772789550258084600,0.129084716796875,-0.0014182880986481905,0.0014690868556499481,0.0011214178521186113
1772789550268150500,0.139150634765625,-0.0005454067140817642,0.00201516505330801,0.001890150597319007
1772789550278215700,0.149215576171875,0.0003518122248351574,0.0014005070552229881,-0.00009150744881480932
1772789550288281600,0.159281494140625,0.0008789182174950838,0.0008862307295203209,0.0008603542810305953
1772789550298347800,0.16934765625,0.0010094132740050554,-0.0013241926208138466,-0.0000959868193604052
1772789550308413400,0.179413330078125,-0.00201985239982605,0.0008744997903704643,0.0027216048911213875
1772789550318479600,0.189479736328125,-0.002062729559838772,-0.0002679964527487755,0.0011535354424268007
1772789550328545500,0.199545654296875,-0.0010445844382047653,-0.0011275727301836014,-0.00006052060052752495
1772789550338610000,0.20960986328125,-0.0029098624363541603,0.0009867111220955849,-0.00023335975129157305
1772789550348675800,0.21967578125,0.00045709661208093166,0.0007896609604358673,-0.00021293762256391346
1772789550358742000,0.229741943359375,0.0009356667287647724,0.0009920615702867508,-0.0007399772293865681
1772789550368808000,0.239807861328125,0.001984072383493185,0.0012785941362380981,0.002007049974054098
1772789550378874000,0.2498740234375,0.0021113716065883636,0.0009803194552659988,-0.0008992577204480767
1772789550388940000,0.25993994140625,0.0007980281952768564,-0.0006041890010237694,-0.0006502217147499323
1772789550399005000,0.2700048828125,0.001168473856523633,-0.0019927620887756348,0.001171380514279008
1772789550409070800,0.28007080078125,0.0028433839324861765,-0.000446525402367115,-0.0006051974487490952
1772789550419137000,0.290136962890625,0.0008135226089507341,0.0010352572426199913,0.0021929859649389982
1772789550429203000,0.300202880859375,0.0014683105982840061,-0.002483479678630829,0.0009663014207035303
1772789550439269000,0.31026904296875,0.0003947904333472252,-0.00170796737074852,-0.0010459830518811941
1772789550449334800,0.320334716796875,0.0017914478667080402,0.0016071759164333344,-0.0011104189325124025
1772789550459401000,0.33040087890625,-0.0009153892751783133,-0.0011177705600857735,0.001908007892780006
1772789550469465900,0.3404658203125,-0.0008262335322797298,0.0010634418576955795,-0.0004253338265698403
1772789550479532000,0.350531982421875,-0.0019444948993623257,-0.0020713647827506065,0.0026037455536425114
1772789550489598000,0.360597900390625,-0.0009965775534510612,0.00038427021354436874,0.001639464171603322
1772789550499664100,0.3706640625,-0.0028900853358209133,0.0008322140201926231,-0.0009752273908816278
1772789550509729800,0.380729736328125,-0.001912735402584076,0.00016850698739290237,0.0006737615331076086
1772789550519796000,0.3907958984375,-0.0026621492579579353,0.0008007418364286423,0.000057772325817495584
1772789550529860900,0.40086083984375,-0.0008660650346428156,-0.0027263062074780464,-0.00039824139093980193
1772789550539927000,0.410927001953125,-0.002559302607551217,-0.0017894059419631958,0.0011088415049016476
1772789550549993000,0.420992919921875,-0.0011517263483256102,0.0012785624712705612,-0.00023506369325332344
1772789550560059100,0.43105908203125,0.00018864287994801998,0.00044898781925439835,0.00027626327937468886
1772789550570124800,0.441124755859375,0.0014398680068552494,0.0006444565951824188,0.00048253603745251894
1772789550580191000,0.45119091796875,0.0018864800222218037,-0.0016914019361138344,0.0005674909334629774
1772789550590255900,0.461255859375,0.0019322204170748591,-0.0009014243260025978,-0.00023063647677190602
1772789550600322000,0.471322021484375,-0.0001556980423629284,0.0011369595304131508,0.002776605077087879
1772789550610388000,0.481387939453125,-0.0003594013396650553,-0.0023494120687246323,-0.001146315480582416
1772789550620454100,0.4914541015625,0.0030664890073239803,-0.0020522037521004677,0.0017714439891278744
1772789550630519800,0.501519775390625,0.0013201700057834387,0.001513749361038208,-0.0004952021408826113
1772789550640586000,0.5115859375,-0.00013657915405929089,-0.001003204844892025,-0.0020068122539669275
1772789550650651000,0.52165087890625,0.0014314663130789995,0.000729280523955822,0.000042827625293284655
1772789550660717000,0.531717041015625,-0.0003925326745957136,-0.0016198931261897087,-0.0021468233317136765
1772789550670783000,0.541782958984375,-0.0007025385275483131,0.0013315454125404358,0.004634061828255653
1772789550680849200,0.55184912109375,-0.0005717771127820015,-0.002669854089617729,0.0009748784359544516
1772789550690914800,0.561914794921875,-0.0019287418108433485,0.0008054925128817558,0.0018890597857534885
1772789550700981000,0.57198095703125,-0.0013617549557238817,-0.0001836055889725685,-0.00033734284806996584
1772789550711047000,0.582046875,-0.003095843829214573,-0.0014732582494616508,0.0004074772587046027
1772789550721112000,0.592112060546875,0.000014728400856256485,-0.0003661820665001869,0.00013503595255315304
1772789550731178000,0.602177978515625,-0.00023077009245753288,0.0016756979748606682,0.000314176082611084
1772789550741244200,0.612244140625,-0.0008765868842601776,-0.000936863012611866,-0.0008930348558351398
1772789550751309800,0.622309814453125,-0.0012675256002694368,0.0006714966148138046,-0.0014361962676048279
1772789550761376000,0.6323759765625,-0.0011759127955883741,0.0017764419317245483,0.000496992259286344
1772789550771442000,0.64244189453125,0.000928935594856739,0.00001722574234008789,0.0033668698742985725
1772789550781507000,0.652507080078125,0.0010751429945230484,0.0007802220061421394,0.001693605910986662
1772789550791573000,0.662572998046875,0.0029757521115243435,-0.0011877454817295074,0.002942000748589635
1772789550801639200,0.67263916015625,0.0015253946185112,-0.0019699158146977425,-0.0028905882500112057
1772789550811704800,0.682704833984375,0.0002139424905180931,-0.0006899936124682426,-0.0004663759027607739
1772789550821771000,0.69277099609375,0.002852602628991008,-0.000890796072781086,0.0007059475756250322
1772789550831837000,0.7028369140625,0.001446765149012208,0.0011828746646642685,-0.0010311349760740995
1772789550841902800,0.71290283203125,0.002099239733070135,-0.0020842915400862694,0.0009129726095125079
1772789550851968000,0.722968017578125,-0.0005527280736714602,-0.0009490437805652618,-0.0003759618557523936
1772789550862034200,0.7330341796875,0.001734394347295165,-0.0003477027639746666,-0.00047849357360973954
1772789550872099800,0.743099853515625,-0.00033531663939356804,-0.0007130037993192673,-0.0007896106108091772
1772789550882166000,0.753166015625,0.0018322302494198084,0.0015581399202346802,0.001987800234928727
1772789550892232000,0.76323193359375,0.000576789490878582,-0.001682516187429428,0.0012460574507713318
1772789550902297900,0.7732978515625,-0.0004482611548155546,0.00001951027661561966,0.00010915391612797976
1772789550912363000,0.783363037109375,0.001649575773626566,0.0017895232886075974,0.002833992475643754
1772789550922429200,0.79342919921875,-0.002298294100910425,-0.0007766988128423691,0.0009641870274208486
1772789550932494800,0.803494873046875,-0.00047941459342837334,0.0003963680937886238,0.0017770020058378577
1772789550942561000,0.81356103515625,-0.0009217658080160618,0.00019743014127016068,0.0005695248255506158
1772789550952627000,0.823626953125,-0.0029480070807039738,0.00022815261036157608,-0.003730852622538805
1772789550962692900,0.83369287109375,-0.000058743637055158615,-0.0034326286986470222,-0.000776874425355345
1772789550972758000,0.843758056640625,-0.001183368731290102,0.0014840355142951012,0.0026396061293780804
1772789550982824200,0.85382421875,0.001235047820955515,-0.0002539427950978279,0.003231626935303211
1772789550992889900,0.863889892578125,0.002866625552996993,-0.0031235115602612495,-0.00048542878357693553
1772789551002956000,0.8739560546875,-0.0005115943495184183,-0.000580991618335247,0.00009993399726226926
1772789551013022000,0.88402197265625,0.0007672654464840889,0.00015366170555353165,0.0015776180662214756
1772789551023087900,0.894087890625,-0.000015437602996826172,0.0006910879164934158,-0.0009510533418506384
1772789551033154000,0.904154052734375,0.0012721896637231112,0.0010415203869342804,0.002820716006681323
1772789551043219200,0.91421923828125,0.0017520913388580084,-0.0026325760409235954,0.0020422739908099174
1772789551053284900,0.924284912109375,0.002706121886149049,0.0011992678046226501,-0.0010246240999549627
1772789551063351000,0.93435107421875,-0.0016872950363904238,-0.0026969369500875473,0.002717383671551943
1772789551073417000,0.9444169921875,0.0011604423634707928,0.0005587423220276833,-0.00012314534978941083
1772789551083483000,0.95448291015625,-0.0013714248780161142,0.0016932487487792969,0.0006489050574600697
1772789551093549000,0.964549072265625,0.0001395372673869133,-0.0014426633715629578,-0.002444258891046047
1772789551103615000,0.974614990234375,-0.0010330523364245892,0.0011816155165433884,0.0011044031707569957
1772789551113680000,0.984679931640625,-0.002106870524585247,-0.0002635205164551735,0.000972402689512819
1772789551123745800,0.994745849609375,-0.0012741000391542912,-0.0016536908224225044,-0.00039619579911231995
1772789551133812000,1.00481201171875,-0.0020941938273608685,-0.000677245669066906,-0.00006647646659985185
1772789551143878000,1.0148779296875,-0.0010491693392395973,-0.0008215894922614098,-0.002175699919462204
1772789551153944000,1.024944091796875,-0.0005370066501200199,-0.0009607942774891853,0.0011124241864308715
1772789551164010000,1.035010009765625,-0.000756450928747654,0.00022404640913009644,-0.0013411460677161813
1772789551174075000,1.045074951171875,-0.00037763454020023346,-0.00036926567554473877,0.000047372421249747276
1772789551184140800,1.055140869140625,-0.0008245129138231277,0.00005364418029785156,0.0017826881958171725
1772789551194207000,1.06520703125,0.0009026634506881237,-0.001944080926477909,-0.0006159510812722147
1772789551204273000,1.07527294921875,0.0006294231861829758,-0.000470554456114769,-0.0008974472293630242
1772789551214339000,1.085339111328125,0.0003716140054166317,0.0015944484621286392,0.0015448587946593761
1772789551224405000,1.095405029296875,0.0012832139618694782,0.00023064389824867249,0.0019967970438301563
1772789551234471200,1.10547119140625,0.0018915911205112934,0.0006811879575252533,-0.001010703039355576
1772789551244535800,1.115535888671875,0.0011802609078586102,-0.0001925947144627571,0.0010966563131660223
1772789551254602000,1.12560205078125,0.0023170355707406998,0.00018590502440929413,0.0015718291979283094
1772789551264668000,1.13566796875,0.001497581135481596,-0.0003986591473221779,0.0008277421002276242
1772789551274734000,1.145734130859375,-0.0002627961803227663,-0.004082629457116127,-0.0007853410206735134
1772789551284800000,1.155800048828125,-0.00085641467012465,0.000997084192931652,0.0008849935838952661
1772789551294866200,1.1658662109375,-0.00015180092304944992,0.0009729890152812004,-0.0007892268477007747
1772789551304931800,1.175931884765625,0.0005278375465422869,-0.00010958593338727951,0.0003141208435408771
1772789551314997000,1.1859970703125,-0.001418757950887084,0.00024571269750595093,0.00005688285455107689
1772789551325063000,1.19606298828125,-0.00021181325428187847,-0.0007124925032258034,0.000056083896197378635
1772789551335129000,1.206129150390625,-0.00012924871407449245,-0.0003581177443265915,-0.0005519783589988947
1772789551345194800,1.21619482421875,-0.001293582608923316,-0.00010911282151937485,-0.0006156279123388231
1772789551355261000,1.226260986328125,0.001307646045461297,-0.0018538311123847961,0.0003086383221670985
1772789551365326800,1.236326904296875,0.0005529061891138554,0.0007070647552609444,0.0020303719211369753
1772789551375392000,1.24639208984375,-0.0021101911552250385,-0.001737586222589016,0.0032266806811094284
1772789551385458000,1.2564580078125,-0.0001264028251171112,0.00016178004443645477,0.0015179963083937764
1772789551395524000,1.266524169921875,0.0005142346490174532,-0.0019055604934692383,0.0006948517984710634
1772789551405589800,1.27658984375,-0.00025568529963493347,-0.0016285916790366173,-0.0021789653692394495
1772789551415656000,1.286656005859375,0.0016553346067667007,0.0018443334847688675,-0.0002910641487687826
1772789551425721900,1.296721923828125,-0.00018863799050450325,-0.0009618392214179039,-0.0018977492582052946
1772789551435788000,1.3067880859375,0.0009459382854402065,0.000977284274995327,0.0016949711134657264
1772789551445853000,1.31685302734375,0.00159867899492383,-0.00043978355824947357,-0.0007261086138896644
1772789551455919000,1.326919189453125,0.003089467529207468,-0.00093856081366539,-0.0004954804899170995
1772789551465984800,1.33698486328125,0.0023823981173336506,0.0015693381428718567,0.0013652702327817678
1772789551476051000,1.347051025390625,0.0007553247269243002,-0.0019131526350975037,0.0007306627812795341
1772789551486116900,1.357116943359375,0.0019617367070168257,0.0002043265849351883,-0.0005079734837636352
1772789551496183000,1.36718310546875,-0.000564072048291564,0.0006925715133547783,0.000019186874851584435
1772789551506249000,1.3772490234375,0.000896139070391655,-0.0008267620578408241,0.0004900337080471218
1772789551516314000,1.387314208984375,-0.0015612374991178513,-0.0003615971654653549,-0.0010254803346469998
1772789551526379800,1.3973798828125,0.002173579530790448,0.00026611052453517914,0.002423313446342945
1772789551536446000,1.407446044921875,-0.002589578041806817,0.0019903425127267838,-0.0007735906983725727
1772789551546512000,1.417511962890625,0.0020853348542004824,-0.0011367406696081161,0.003076275112107396
1772789551556578000,1.427578125,0.0001333104446530342,-0.0002057775855064392,-0.0024154148995876312
1772789551566644000,1.43764404296875,-0.000245923874899745,0.0006770603358745575,0.0023361972998827696
1772789551576710000,1.4477099609375,0.000015890691429376602,-0.00048203300684690475,0.0011423785472288728
1772789551586774800,1.45777490234375,0.0005748881958425045,-0.002030394971370697,-0.002342633903026581
1772789551596841000,1.467841064453125,-0.0002846820279955864,-0.002716127783060074,0.00049493124242872
1772789551606907000,1.477906982421875,0.001542246202006936,-0.0015115803107619286,0.0000232853926718235
1772789551616972800,1.487972900390625,-0.0009332501795142889,-0.0006884587928652763,-0.0022246199660003185
1772789551627039000,1.4980390625,0.001994895515963435,-0.003442700020968914,-0.00011166778858751059
1772789551637105000,1.50810498046875,0.0019354341784492135,-0.00008890219032764435,0.0010292076040059328
1772789551647171000,1.518171142578125,-0.0007192050106823444,-0.00037119723856449127,0.003142692381516099
1772789551657237000,1.528237060546875,0.0002488805912435055,-0.0011836914345622063,0.0010373182594776154
1772789551667302000,1.538302001953125,0.00002996879629790783,0.0012296652421355247,0.0004429007531143725
1772789551677367800,1.548367919921875,0.0008323811925947666,0.0028658900409936905,0.0015992471016943455
1772789551687434000,1.55843408203125,-0.0005790942814201117,-0.0017994353547692299,-0.0015528702642768621
1772789551697500000,1.5685,0.00004218611866235733,0.002377135679125786,0.0013909448171034455
1772789551707566000,1.578566162109375,-0.0007269349880516529,-0.001653292216360569,-0.0013827374204993248
1772789551717631700,1.5886318359375,-0.001385728595778346,-0.000019066035747528076,-0.0008454076596535742
1772789551727698000,1.598697998046875,0.0016960813663899899,-0.001120016910135746,-0.000612647389061749
1772789551737762800,1.6087626953125,0.000857232604175806,-0.0019678520038723946,-0.0007546689012087882
1772789551747829000,1.6188291015625,-0.0007758177816867828,0.0004111500456929207,0.0006227179546840489
1772789551757895000,1.62889501953125,-0.0007597201038151979,0.0014467043802142143,0.001399814966134727
1772789551767961000,1.638961181640625,-0.0002768889535218477,0.000661071389913559,-0.0019752089865505695
1772789551778026800,1.64902685546875,-0.00016360357403755188,0.001663433387875557,0.00020133377984166145
1772789551788093000,1.659093017578125,-0.0008536288514733315,-0.0014021312817931175,0.002851445460692048
1772789551798158800,1.669158935546875,-0.0025339629501104355,0.0019572917371988297,0.00018497114069759846
1772789551808224000,1.67922412109375,0.0006559714674949646,-0.0005567325279116631,0.0009892458328977227
1772789551818290000,1.6892900390625,-0.0004521284718066454,0.0006264913827180862,-0.0006244570831768215
1772789551828356000,1.699356201171875,-0.0006678442005068064,0.0008968021720647812,0.0011340281926095486
1772789551838421800,1.709421875,-0.000024494249373674393,0.00008400063961744308,-0.003564018290489912
1772789551848488000,1.719488037109375,0.0016114856116473675,0.001854204572737217,-0.0019432185217738152
1772789551858553900,1.729553955078125,0.0002341042272746563,-0.0016403552144765854,-0.002461002441123128
1772789551868620000,1.7396201171875,0.0017100281547755003,-0.0017556697130203247,-0.0004633652570191771
1772789551878685000,1.749684814453125,0.00005218083970248699,-0.0013998206704854965,0.003532375441864133
1772789551888751000,1.759751220703125,0.0016354299150407314,0.0011914344504475594,-0.0018719774670898914
1772789551898816800,1.769816650390625,-0.0013361622113734484,0.0026869336143136024,0.001463128486648202
1772789551908883000,1.779883056640625,0.002005305839702487,-0.0006502736359834671,-0.000184835575055331
1772789551918948900,1.789948974609375,-0.0001566943246871233,0.000939859077334404,0.0009213045705109835
1772789551929015000,1.80001513671875,-0.000360692385584116,0.0005467766895890236,-0.003393016289919615
1772789551939081000,1.8100810546875,-0.0012289360165596008,-0.0014465581625699997,0.0012967956718057394
1772789551949147000,1.82014697265625,-0.0032390900887548923,0.0008240528404712677,-0.0009341343538835645
1772789551959211800,1.830211669921875,-0.0015488362405449152,-0.00151161290705204,-0.0021145117934793234
1772789551969278000,1.84027783203125,0.0008871573954820633,0.0012418292462825775,-0.00008598202839493752
1772789551979344000,1.85034375,0.00019906298257410526,0.0020230701193213463,-0.0014277140144258738
1772789551989410000,1.86041015625,-0.0015519652515649796,-0.001786314882338047,-0.000556327635422349
1772789551999476000,1.87047607421875,-0.0008420078083872795,0.0001206444576382637,0.0011250692186877131
1772789552009542000,1.8805419921875,0.0006701350212097168,0.0005379617214202881,0.0013133547035977244
1772789552019608000,1.890608154296875,-0.00024160766042768955,0.0011480962857604027,0.0021632667630910873
1772789552029674000,1.900674072265625,0.0013834529090672731,0.002208567224442959,0.002642103238031268
1772789552039739000,1.91073876953125,0.0010140344966202974,-0.0004317713901400566,0.00007361738244071603
1772789552049804800,1.9208046875,-0.0019844183698296547,0.0005200421437621117,-0.0007932414882816374
1772789552059871000,1.93087109375,0.0014915976207703352,-0.0007716845721006393,0.00029871391598135233
1772789552069937000,1.94093701171875,-0.0007739535067230463,-0.0004076305776834488,-0.00006800331175327301
1772789552080003000,1.951003173828125,0.002368199173361063,-0.0018430761992931366,0.0001552520552650094
1772789552090068700,1.96106884765625,0.001317315734922886,-0.0001234728842973709,0.0022719325497746468
1772789552100135000,1.971135009765625,0.0016151871532201767,0.001024855300784111,-0.00004652276402339339
1772789552110200800,1.981200927734375,-0.0007097525522112846,0.00020034052431583405,-0.0004127073916606605
1772789552120266000,1.991265869140625,0.0011393192689865828,0.0011938158422708511,0.0010347336065024137
1772789552130332000,2.001331787109375,-0.0005605765618383884,-0.000048547983169555664,0.00038385705556720495
1772789552140398000,2.011398193359375,0.0006919826846569777,-0.0026343828067183495,-0.000821284600533545
1772789552150463700,2.021463623046875,0.001376947620883584,0.001038915477693081,0.002249340061098337
1772789552160530000,2.031530029296875,-0.0011968188919126987,-0.001993943005800247,-0.00021169078536331654
1772789552170595800,2.041595947265625,0.00003995327278971672,0.000503036193549633,0.0009039074648171663
1772789552180662000,2.051662109375,-0.000921404454857111,0.0020360546186566353,0.000525343173649162
1772789552190728000,2.06172802734375,0.00040245288982987404,0.001270129345357418,0.0009040447766892612
1772789552200793000,2.07179296875,0.00036261999048292637,-0.000007205642759799957,-0.00008784164674580097
1772789552210858800,2.081858642578125,-0.00211971253156662,0.00029239989817142487,-0.0010513733141124249
1772789552220925000,2.091925048828125,-0.0010752391535788774,0.0017317235469818115,-0.000981487799435854
1772789552230990800,2.101990966796875,0.0017695494461804628,0.0010270513594150543,-0.0018459499115124345
1772789552241057000,2.11205712890625,0.0006731990724802017,-0.0009605968371033669,-0.002285290276631713
1772789552251123000,2.122123046875,0.0007786601781845093,0.00005113799124956131,-0.0004479755589272827
1772789552261188900,2.13218896484375,0.00029694102704524994,-0.00004211999475955963,-0.00020558142568916082
1772789552271255000,2.142255126953125,0.0007443521171808243,0.0008106241002678871,0.0013491720892488956
1772789552281320000,2.15231982421875,-0.0026223743334412575,0.0015954189002513885,-0.00041812233394011855
1772789552291385900,2.1623857421875,0.000726550817489624,0.0030023669824004173,0.000006918155122548342
1772789552301452000,2.1724521484375,0.0029400773346424103,-0.0009197872132062912,0.0009568426175974309
1772789552311518000,2.18251806640625,0.0010407108347862959,0.002817959524691105,-0.0004250716883689165
1772789552321583900,2.192583984375,0.00019716774113476276,-0.0006406689062714577,-0.00011421280214563012
1772789552331650000,2.202650146484375,-0.0008119039703160524,0.0006863847374916077,0.0024639933835715055
1772789552341716000,2.212716064453125,0.0005582552403211594,0.0008951164782047272,0.002832554280757904
1772789552351782000,2.222781982421875,-0.0007493570446968079,-0.0003112955018877983,0.00008949835319072008
1772789552361847000,2.232846923828125,-0.0018243922386318445,0.0007302789017558098,-0.0011535922531038523
1772789552371913000,2.242912841796875,-0.0005617875140160322,-0.0002843858674168587,0.0019692303612828255
1772789552381979000,2.252978759765625,-0.0012083083856850863,0.0011466043069958687,0.0004001684719696641
1772789552392045000,2.263045166015625,-0.0024115245323628187,-0.001510697416961193,-0.0011833470780402422
1772789552402111000,2.273111083984375,-0.0003032502718269825,0.0005333032459020615,0.0032635189127177
1772789552412177000,2.283177001953125,-0.0008491985499858856,-0.001817203126847744,-0.0005123108858242631
1772789552422242800,2.293242919921875,-0.00022968114353716373,0.00322100892663002,0.00005991430953145027
1772789552432309000,2.30330908203125,0.0011282647028565407,0.00013200845569372177,-0.0012788567692041397
1772789552442374000,2.313373779296875,0.0008963975124061108,-0.0006853267550468445,-0.00026694609550759196
1772789552452440000,2.323440185546875,0.00107243238016963,0.000047841109335422516,0.000934938492719084
1772789552462505700,2.333505615234375,0.002130829729139805,-0.00052623450756073,-0.0011798699852079153
1772789552472572000,2.343572021484375,0.0013867425732314587,0.0011968305334448814,-0.0003079510643146932
1772789552482637800,2.353637939453125,-0.00018737930804491043,0.0006734197959303856,0.0005524355219677091
1772789552492704000,2.3637041015625,0.0019032021518796682,0.00057967659085989,-0.001110974932089448
1772789552502770000,2.37377001953125,0.0005659330636262894,0.0005989754572510719,-0.00203288858756423
1772789552512836000,2.383836181640625,0.001598174450919032,0.0022189756855368614,0.0003892563981935382
1772789552522900700,2.393900634765625,-0.0002981333527714014,0.0003877626731991768,-0.0016137594357132912
1772789552532967000,2.403966796875,-0.0010811027605086565,0.001437314786016941,0.0012358227977529168
1772789552543032800,2.41403271484375,-0.0017365296371281147,0.0011424142867326736,-0.002010498894378543
1772789552553099000,2.42409912109375,0.0006089161615818739,0.0012026019394397736,-0.002127678133547306
1772789552563165000,2.4341650390625,-0.0006819863338023424,0.002933396026492119,-0.00019638886442407966
1772789552573231000,2.444231201171875,-0.0012606910895556211,-0.0012078192085027695,-0.0031064250506460667
1772789552583297000,2.454297119140625,-0.0011288004461675882,0.0008254386484622955,-0.0005117947002872825
1772789552593363000,2.464363037109375,-0.001653975574299693,0.0005774982273578644,0.0007822352345101535
1772789552603428900,2.474428955078125,0.000799715518951416,-0.0024868426844477654,-0.00009497761493548751
1772789552613494000,2.484493896484375,0.00003272527828812599,0.0012796660885214806,0.0016557845519855618
1772789552623560000,2.494559814453125,0.0016115829348564148,-0.0002476964145898819,0.00022775353863835335
1772789552633626000,2.504626220703125,-0.00006061582826077938,0.00012328196316957474,-0.0016993097960948944
1772789552643692000,2.514692138671875,-0.0008540027774870396,-0.0009486256167292595,-0.0019765528850257397
1772789552653758000,2.524758056640625,0.0005920936819165945,0.000003187917172908783,-0.0020865416154265404
1772789552663824000,2.534823974609375,0.0019155434565618634,0.0003545694053173065,0.0025245987344533205
1772789552673889800,2.544889892578125,0.002615954726934433,-0.0009146928787231445,0.00028354860842227936
1772789552683956000,2.5549560546875,0.0008719686884433031,-0.00037475302815437317,-0.00246900855563581
1772789552694022000,2.56502197265625,-0.0019477861933410168,0.0020559141412377357,-0.0003744323621504009
1772789552704087000,2.575087158203125,0.00191397569142282,-0.004469366744160652,-0.000779846275690943
1772789552714153000,2.585153076171875,-0.002193950116634369,0.0008127465844154358,0.0019522906513884664
1772789552724219000,2.595218994140625,0.001451833639293909,0.0011630700901150703,0.0021895552054047585
1772789552734284800,2.605284912109375,-0.0006968046072870493,-0.0008020764216780663,-0.001920234994031489
1772789552744351000,2.61535107421875,-0.0009531134273856878,-0.0010343259200453758,-0.0006627957336604595
1772789552754417000,2.6254169921875,-0.0010178282391279936,-0.0008585574105381966,0.0012735886266455054
1772789552764483000,2.635483154296875,-0.0004282656591385603,0.0007984526455402374,-0.001539815915748477
1772789552774549000,2.645549072265625,-0.001033335691317916,0.0002168174833059311,-0.0010223636636510491
1772789552784614000,2.65561376953125,-5.960464477539062e-7,-0.00023022480309009552,0.0015092187095433474
1772789552794679800,2.6656796875,0.0006614658050239086,0.0007215887308120728,0.00026605522725731134
1772789552804746000,2.67574609375,0.000009740935638546944,-0.00017445627599954605,-0.0007373032858595252
1772789552814812000,2.68581201171875,0.0017130987253040075,-0.0009409142658114433,0.0002768283593468368
1772789552824878000,2.695878173828125,-0.0005165771581232548,0.0008227424696087837,-0.0011572103248909116
1772789552834944000,2.705944091796875,0.002967103850096464,-0.00027847476303577423,0.00026385235833004117
1772789552845010000,2.716010009765625,-0.0004633318167179823,0.0012506814673542976,0.0008359387284144759
1772789552855075800,2.726075927734375,-0.001104887342080474,-0.0014564217999577522,-0.000951841298956424
1772789552865141800,2.736141845703125,-0.001935773529112339,-0.00011557992547750473,0.00047803937923163176
1772789552875207000,2.74620703125,-0.0005943393334746361,0.0007704542949795723,0.0000804293667897582
1772789552885273000,2.756273193359375,-0.0002641454339027405,-0.0007138112559914589,0.002227901015430689
1772789552895339000,2.766339111328125,0.0019460119074210525,0.0003197621554136276,0.00027846707962453365
1772789552905405000,2.776405029296875,0.0013692067004740238,-0.00183060672134161,0.003482548054307699
1772789552915470800,2.786470947265625,-0.0006262997630983591,0.0009084539487957954,0.00044148456072434783
1772789552925536800,2.796536865234375,-0.0021023426670581102,-0.0010273763909935951,0.0005970247439108789
1772789552935603000,2.80660302734375,-0.00024185818620026112,-0.0003836899995803833,0.000042022031266242266
1772789552945668900,2.8166689453125,0.000616440549492836,0.0019296323880553246,-0.002074273070320487
1772789552955735000,2.826735107421875,0.0011895529460161924,-0.0028693843632936478,-0.00008036429062485695
1772789552965800000,2.836800048828125,0.0005316222086548805,-0.0005456358194351196,0.0008028416195884347
1772789552975865900,2.846865966796875,-0.0009256596677005291,-0.0009123524650931358,-0.00002753199078142643
1772789552985931800,2.856931884765625,0.0006547824013978243,-0.0021592648699879646,-0.0009411092032678425
1772789552995998000,2.866998046875,-0.0032720486633479595,0.0011742142960429192,-0.001115013612434268
1772789553006063900,2.87706396484375,-0.00021370709873735905,-0.004147735424339771,0.00044743670150637627
1772789553016130000,2.887130126953125,0.0008044193964451551,0.0005064047873020172,0.001524152816273272
1772789553026196000,2.897196044921875,-0.0015909615904092789,0.0018102508038282394,0.0005540935089811683
1772789553036262100,2.90726220703125,-0.0004151761531829834,-0.0018246974796056747,-0.0003607023390941322
1772789553046327800,2.917327880859375,-0.001178430626168847,0.0010171113535761833,-0.00046195744653232396
1772789553056394000,2.92739404296875,-0.0008740311022847891,-0.0025424696505069733,-0.002346410183236003
1772789553066459000,2.937458984375,0.0007702514994889498,-0.00015224795788526535,0.0010390124516561627
1772789553076525000,2.947525146484375,0.0009292419999837875,0.0019356701523065567,0.0006054498953744769
1772789553086591000,2.957591064453125,-0.0012335809879004955,-0.0001979852095246315,-0.002195510780438781
1772789553096657200,2.9676572265625,0.000017838552594184875,-0.00021662749350070953,-0.0012215926544740796
1772789553106722800,2.977722900390625,0.0011157640255987644,-0.002009402960538864,-0.0006230157450772822
1772789553116789000,2.9877890625,0.002748015569522977,0.0001016855239868164,-0.0023844304960221052
1772789553126855000,2.99785498046875,0.001340679358690977,0.0009187459945678711,0.00039678841130807996
1772789553136920800,3.0079208984375,-0.0011203477624803782,-0.0014799628406763077,-0.000042899453546851873
1772789553146987000,3.017987060546875,0.0014187030028551817,0.00047925394028425217,0.001086574513465166
1772789553157052200,3.02805224609375,0.0005017765797674656,-0.0018843021243810654,0.0015691393055021763
1772789553167117800,3.038117919921875,0.0010203404817730188,0.00020196940749883652,0.003197241807356477
1772789553177183700,3.048183837890625,0.003274972550570965,0.0002179490402340889,0.0015287711285054684
1772789553187250000,3.05825,-0.00038683367893099785,0.0003932518884539604,-0.00047104479745030403
1772789553197315800,3.06831591796875,0.0013503460213541985,0.0003463802859187126,-0.0022215405479073524
1772789553207382000,3.078382080078125,0.00029105786234140396,-0.00011792685836553574,0.0002010859316214919
1772789553217448000,3.088447998046875,-0.001189925940707326,-0.0002215234562754631,0.00016193755436688662
1772789553227514000,3.09851416015625,0.0008809163700789213,0.0011284248903393745,0.002493708860129118
1772789553237579800,3.108579833984375,-0.0017332425341010094,-0.0004899781197309494,-0.001094634411856532
1772789553247646000,3.11864599609375,-0.0009347214363515377,0.002294110134243965,0.0006880094879306853
1772789553257710800,3.1287109375,-0.002979762852191925,-0.0011442974209785461,0.0005332797882147133
1772789553267777000,3.138777099609375,-0.0006598262116312981,-0.0004041669890284538,-0.0014894695486873388
1772789553277843000,3.148843017578125,0.0004435214214026928,0.0008267462253570557,0.0010021838825196028
1772789553287909000,3.1589091796875,-0.0008905208669602871,-0.0019900966435670853,-0.0006015825783833861
1772789553297974800,3.168974853515625,0.00005543418228626251,0.001959904097020626,-0.0016205080319195986
1772789553308041000,3.179041015625,0.002014503348618746,-0.0000096932053565979,0.0016846487997099757
1772789553318107000,3.18910693359375,0.0001710632350295782,-0.000037124380469322205,-0.0008722522179596126
1772789553328172800,3.1991728515625,0.0038028510753065348,0.0008836481720209122,-0.0002969300840049982
1772789553338239700,3.20923974609375,0.002071796450763941,-0.00029959436506032944,0.0023169624619185925
1772789553348304400,3.219304443359375,-0.0007195633370429277,0.000862879678606987,0.0007766044582240283
1772789553358370600,3.22937060546875,-0.002204275457188487,-0.0019198572263121605,-0.0003310042666271329
1772789553368436500,3.2394365234375,0.0022537284530699253,-0.0019555026665329933,0.0017044339329004288
1772789553378502700,3.249502685546875,0.00023611774668097496,0.0030315332114696503,-0.00371802831068635
1772789553388568600,3.259568603515625,-0.0013056844472885132,-0.0030349427834153175,0.0017301186453551054
1772789553398634800,3.269634765625,-0.00010406598448753357,-0.00032064877450466156,-0.0013799207517877221
1772789553408700400,3.279700439453125,-0.0004964121617376804,0.0014677466824650764,0.0026790802367031574
1772789553418766600,3.2897666015625,-0.0006958828307688236,-0.001482502557337284,-0.0009012733353301883
1772789553428832500,3.29983251953125,0.002398634795099497,0.0017941119149327278,-0.0028941696509718895
1772789553438898700,3.309898681640625,0.00019087432883679867,0.0014044912531971931,0.0007511654403060675
1772789553448963600,3.319963623046875,0.00043450319208204746,-0.0013270759955048561,0.0007535505574196577
1772789553459029800,3.33002978515625,0.0015674119349569082,-0.0011872602626681328,-0.0011008083820343018
1772789553469095400,3.340095458984375,0.0029061571694910526,0.00007333047688007355,-0.002123676473274827
1772789553479161600,3.35016162109375,0.0003694961778819561,0.0008895890787243843,-0.00044481977238319814
1772789553489227500,3.3602275390625,-0.0018849256448447704,0.0012084133923053741,0.0005383138777688146
1772789553499293400,3.37029345703125,0.0017196628032252192,-0.0004651164636015892,0.0007020982448011637
1772789553509359600,3.380359619140625,0.0005287798121571541,0.003108702600002289,0.002392004244029522
1772789553519425500,3.390425537109375,0.0013218692038208246,-0.0011185333132743835,0.0015957193681970239
1772789553529491700,3.40049169921875,-0.0011418794747442007,0.00027664750814437866,0.0010617952793836594
1772789553539557400,3.410557373046875,-0.00012002442963421345,-0.0004589175805449486,0.0008285024086944759
1772789553549623600,3.42062353515625,-0.0011286679655313492,-0.0013672513887286186,0.00028517720056697726
1772789553559688400,3.4306884765625,-0.0008093551732599735,-0.0006937375292181969,0.0010228727478533983
1772789553569754600,3.440754638671875,0.0016646417789161205,-0.0025626299902796745,0.0017076812218874693
1772789553579820500,3.450820556640625,0.001424690941348672,-0.0005631288513541222,-0.001054283115081489
1772789553589886700,3.46088671875,-0.0006960690952837467,-0.0013668863102793694,-0.00042664294596761465
1772789553599952400,3.470952392578125,0.0002970234490931034,-0.00004622526466846466,-0.001727330731227994
1772789553610018600,3.4810185546875,0.0006187618710100651,0.0013894448056817055,0.0004236160311847925
1772789553620084500,3.49108447265625,-0.0013194866478443146,-0.00096079520881176,0.0005160276778042316
1772789553630150700,3.501150634765625,0.0005525776650756598,-0.0013878047466278076,0.0004636654048226774
1772789553640216600,3.511216552734375,-0.0005797985941171646,0.0006290068849921227,0.00034142640652135015
1772789553650282500,3.521282470703125,-0.0003645119722932577,-0.00031333789229393005,0.0002636747667565942
1772789553660347400,3.531347412109375,-0.000610588351264596,0.002623063512146473,-0.002302281092852354
1772789553670413600,3.54141357421875,-0.0007468117401003838,-0.001661747694015503,-0.0030569019727408886
1772789553680479500,3.5514794921875,0.0012644072994589806,-0.0009240517392754555,-0.001772459363564849
1772789553690545700,3.561545654296875,0.0025350882206112146,-0.0003971066325902939,-0.001339434995315969
1772789553700611600,3.571611572265625,0.002884495072066784,0.0008646994829177856,-0.0035016555339097977
1772789553710677500,3.581677490234375,0.0005199399311095476,-0.0002974802628159523,-0.00048082618741318583
1772789553720743700,3.59174365234375,0.00016360892914235592,0.0019872458651661873,-0.00023395114112645388
1772789553730809300,3.601809326171875,0.00009023118764162064,0.0009932313114404678,0.0002907372545450926
1772789553740875500,3.61187548828125,-0.002511410741135478,0.0016283951699733734,-0.0007830493268556893
1772789553750941400,3.62194140625,-0.0006963596679270267,-0.0008092997595667839,-0.0010401642648503184
1772789553761006600,3.632006591796875,0.0015795775689184666,0.0030091404914855957,0.00016198668163269758
1772789553771072500,3.642072509765625,0.0005798789206892252,-0.000020458362996578217,0.001993304118514061
1772789553781138700,3.652138671875,0.0002086344175040722,-0.0011664172634482384,-0.0006794442888349295
1772789553791204400,3.662204345703125,-0.003013502573594451,-0.0008663572371006012,0.001231096452102065
1772789553801270500,3.6722705078125,0.00088110426440835,-0.002711661159992218,0.0000851383083499968
1772789553811336400,3.68233642578125,0.00042933900840580463,0.0009031128138303757,-0.000607276801019907
1772789553821402600,3.692402587890625,-0.000459091505035758,-0.0008820034563541412,-0.0008248570375144482
1772789553831468500,3.702468505859375,-0.000004122033715248108,0.000914418138563633,-0.00004306377377361059
1772789553841534700,3.71253466796875,0.00040627107955515385,0.000421999953687191,0.002217427361756563
1772789553851600600,3.7226005859375,0.0005789645947515965,0.0006875656545162201,-0.000982810975983739
1772789553861666600,3.73266650390625,-0.0015020293649286032,0.0014044884592294693,-0.0008360707433894277
1772789553871731500,3.7427314453125,-0.002034819219261408,-0.0014068400487303734,-0.0011934072244912386
1772789553881797600,3.752797607421875,0.001573764020577073,-0.00168593879789114,-0.001203793566673994
1772789553891863600,3.762863525390625,-0.0004108354914933443,0.0009674970060586929,0.0010488562984392047
1772789553901929700,3.7729296875,-0.0004209552425891161,-0.0013542473316192627,0.0015079851727932692
1772789553911995600,3.78299560546875,0.001101688714697957,0.0007078424096107483,-0.0017402635421603918
1772789553922061600,3.7930615234375,0.0018266012193635106,-0.0001552887260913849,0.0009820195846259594
1772789553932127500,3.80312744140625,-0.00013511581346392632,-0.0009131142869591713,0.0018748267320916057
1772789553942193400,3.813193359375,0.00038979342207312584,-0.0007852818816900253,0.0014228882500901818
1772789553952259600,3.823259521484375,0.00012736860662698746,-0.001043751835823059,0.0014571077190339565
1772789553962325500,3.833325439453125,0.0015995639842003584,0.0009469613432884216,0.0018038512207567692
1772789553972391700,3.8433916015625,0.0029680044390261173,-0.0015376750379800797,0.0007926519610919058
1772789553982456300,3.853456298828125,0.000521091977134347,0.0006525088101625443,0.002900011371821165
1772789553992522500,3.8635224609375,-0.0015317497309297323,0.0004890495911240578,0.0002830647863447666
1772789554002588400,3.87358837890625,-0.001093393424525857,-0.0005546435713768005,-0.0007598291267640889
1772789554012654600,3.883654541015625,0.0015568055678158998,-0.0008034510537981987,0.0009476129780523479
1772789554022720500,3.893720458984375,-0.002201181137934327,0.00045542512089014053,0.0013774470426142216
1772789554032786700,3.90378662109375,-0.0010708055924624205,-0.0019167261198163033,-0.002051226794719696
1772789554042852600,3.9138525390625,0.0018477524863556027,-0.00043014995753765106,-0.002322070300579071
1772789554052918800,3.923918701171875,-0.0018522983882576227,0.0010768184438347816,0.0017289271345362067
1772789554062984400,3.933984375,-0.00007756776176393032,-0.0009493147954344749,0.0024604974314570427
1772789554073050600,3.944050537109375,-0.00048807053826749325,0.0028938939794898033,-0.0020454577170312405
1772789554083116500,3.954116455078125,0.0006501646712422371,-0.0023876866325736046,-0.0013288010377436876
1772789554093181700,3.964181640625,0.0006292667239904404,0.0002342676743865013,-0.001076326472684741
1772789554103247600,3.97424755859375,0.0016226256266236305,0.00038606859743595123,-0.0008350440766662359
1772789554113313800,3.984313720703125,-0.0004827242810279131,-0.0018613645806908607,-0.0008263159543275833
1772789554123379500,3.99437939453125,0.0005010475870221853,0.0019621355459094048,0.0002091210917569697
1772789554133445400,4.0044453125,0.0024381065741181374,0.00045946892350912094,-0.0028899377211928368
1772789554143511600,4.014511474609375,-0.000955027062445879,-0.0005639838054776192,0.00026111456099897623
1772789554153576700,4.02457666015625,-0.0010344707407057285,0.001895054243505001,0.0022559245117008686
1772789554163642600,4.034642578125,-0.002192945685237646,-0.002282113768160343,0.0012817403767257929
1772789554173708800,4.044708740234375,-0.0013326006010174751,0.003101663663983345,-0.00035778176970779896
1772789554183774500,4.0547744140625,0.0007563831750303507,0.000040626153349876404,-0.002315737772732973
1772789554193840400,4.06484033203125,-0.0002534387167543173,0.0014928486198186874,-0.00017159600974991918
1772789554203906600,4.074906494140625,-0.0033248623367398977,-0.0015303725376725197,0.0009322842815890908
1772789554213972500,4.084972412109375,0.0005295178852975368,0.00048116501420736313,0.00002238893648609519
1772789554224038700,4.09503857421875,0.0016070329584181309,0.001292097382247448,-0.00110865558963269
1772789554234104600,4.1051044921875,-0.002176521113142371,-0.0028921887278556824,0.0011227029608562589
1772789554244170800,4.115170654296875,0.00032498594373464584,-0.0013331742957234383,0.0005658359732478857
1772789554254236400,4.125236328125,0.0004850819241255522,0.001069336198270321,0.0012850683415308595
1772789554264301600,4.135301513671875,0.00012662052176892757,-0.0017722565680742264,-0.0007282814476639032
1772789554274367500,4.145367431640625,0.002678545890375972,0.0013578245416283607,-0.00006114476127550006
1772789554284433700,4.15543359375,0.0014705359935760498,-0.0011183824390172958,0.0006733550690114498
1772789554294499600,4.16549951171875,-0.00045816879719495773,-0.00016573816537857056,-0.00027343741385266185
1772789554304565800,4.175565673828125,0.0014457250945270061,0.00036769360303878784,-0.00023002788657322526
1772789554314631400,4.18563134765625,-0.002235427964478731,0.0001739664003252983,-0.001050989143550396
1772789554324697600,4.195697509765625,-0.00042607635259628296,-0.0019922489300370216,0.0035070108715444803
1772789554334763500,4.205763427734375,-0.0003176066093146801,0.0017012245953083038,-0.0010361261665821075
1772789554344829400,4.215829345703125,0.003910960629582405,0.00040639564394950867,0.0010973319876939058
1772789554354895400,4.225895263671875,0.001434066565707326,-0.0017253952100872993,-0.0006518748123198748
1772789554364961300,4.235961181640625,0.0004649423062801361,-0.0018271282315254211,0.002162021119147539
1772789554375027500,4.24602734375,-0.0009214079473167658,-0.0008977856487035751,-0.0000611276482231915
1772789554385092400,4.25609228515625,-0.0008066256996244192,-0.0024658553302288055,-0.0023985840380191803
1772789554395158300,4.266158203125,-0.0008660051971673965,0.0005698921158909798,0.003761555999517441
1772789554405224400,4.276224365234375,0.0015707870479673147,0.0018990756943821907,-0.0007485071546398103
1772789554415290400,4.286290283203125,-0.0006208354607224464,0.0006423322483897209,0.002742558252066374
1772789554425356300,4.296356201171875,0.000444961478933692,0.0006628381088376045,0.0004426523810252547
1772789554435422500,4.30642236328125,0.0013184936251491308,-0.001322876662015915,0.002671740483492613
1772789554445488000,4.316488037109375,0.001795465825125575,0.0001823417842388153,0.0005481360130943358
1772789554455554300,4.32655419921875,-0.0005564300809055567,-0.0029823873192071915,-0.0010283173760399222
1772789554465620200,4.3366201171875,0.00015303632244467735,-0.0002699578180909157,-0.002357767429202795
1772789554475686400,4.346686279296875,-0.0029396701138466597,0.0017139557749032974,-0.002355368807911873
1772789554485752300,4.35675244140625,-0.0018219414632767439,-0.00041923578828573227,-0.0018222038634121418
1772789554495818500,4.366818603515625,0.0003920518793165684,-3.259629011154175e-7,0.00004418828757479787
1772789554505883100,4.376883056640625,0.000997920986264944,-0.00046291667968034744,0.002307608723640442
1772789554515949300,4.38694921875,0.0016041339840739965,0.0009069852530956268,-0.0007111991290003061
1772789554526015200,4.39701513671875,0.0028233290649950504,0.0006667673587799072,0.000024099659640341997
1772789554536081400,4.407081298828125,-0.00044657476246356964,0.0003750305622816086,-0.0018273689784109592
1772789554546147300,4.417147216796875,0.00034571578726172447,0.001335100270807743,-0.0007589087472297251
1772789554556213500,4.427213623046875,-0.000012132339179515839,0.00025972630828619003,-0.00018043199088424444
1772789554566279400,4.437279541015625,0.0005663062911480665,-0.0006119254976511002,0.002662226092070341
1772789554576345000,4.447344970703125,0.00004776427522301674,-0.0018723830580711365,0.00006473809480667114
1772789554586411300,4.457411376953125,-0.0011450652964413166,0.003191085532307625,-0.0005222226027399302
1772789554596477200,4.467477294921875,-0.0006637510377913713,0.0022247005254030228,0.002465060679242015
1772789554606543400,4.47754345703125,0.0002363971434533596,-0.0003950502723455429,0.002465060679242015
1772789554616609300,4.487609375,-0.0015705784317106009,0.0014192508533596992,-0.0007915477035567164
1772789554626674400,4.49767431640625,0.0004411735571920872,0.0010152487084269524,0.0035424805246293545
1772789554636740000,4.507739990234375,0.00009010685607790947,-0.0007504308596253395,0.0012711947783827782
1772789554646806300,4.51780615234375,0.000034979311749339104,0.0008663740009069443,-0.0004800998140126467
1772789554656872200,4.5278720703125,-0.0009285355918109417,0.0016121286898851395,-0.000019234372302889824
1772789554666938400,4.5379384765625,-0.0006041629239916801,0.0006643105298280716,-0.0007132541504688561
1772789554677004300,4.54800439453125,0.0013551919255405664,-0.00033530406653881073,0.0018010131316259503
1772789554687070500,4.558070556640625,0.0018337620422244072,0.0011363588273525238,0.0025885095819830894
1772789554697136400,4.568136474609375,-0.00045755994506180286,-0.0019122185185551643,0.00011705426732078195
1772789554707202300,4.578202392578125,-0.0002690078690648079,0.001453750766813755,0.0003263786784373224
1772789554717268200,4.588268310546875,0.0010186736471951008,0.0008431458845734596,-0.00024309562286362052
1772789554727334100,4.598334228515625,-0.00036670267581939697,-0.002669829875230789,-0.001797849079594016
1772789554737400300,4.608400390625,-0.0007633271161466837,0.00044186878949403763,0.00250463979318738
1772789554747465500,4.618465576171875,0.0002942141145467758,0.0007539913058280945,-0.003100515343248844
1772789554757531400,4.628531494140625,-0.0010076898615807295,0.0005499105900526047,-0.001268717460334301
1772789554767597300,4.638597412109375,-0.00046360609121620655,-0.0014027189463376999,-0.002339840866625309
1772789554777663200,4.648663330078125,0.0006008029449731112,-0.00021901633590459824,-0.0010216154623776674
1772789554787729200,4.658729248046875,-0.000025040004402399063,0.0015029842033982277,0.0014125138986855745
1772789554797795300,4.66879541015625,0.001039046561345458,0.0025565996766090393,0.0006331309559755027
1772789554807861200,4.678861328125,-0.0034891264513134956,0.0016985293477773666,0.00024351052707061172
1772789554817927400,4.688927490234375,-0.002330835908651352,0.0025969771668314934,0.0005870963796041906
1772789554827993300,4.698993408203125,-0.0005827373825013638,-0.0024457182735204697,-0.003140263957902789
1772789554838059500,4.7090595703125,0.00010416749864816666,-0.0014973636716604233,-0.0016141635132953525
1772789554848125200,4.719125244140625,-0.0006005046889185905,0.00010932143777608871,0.0002849366283044219
1772789554858191400,4.72919140625,0.00009173550643026829,-0.000779125839471817,-0.004259850364178419
1772789554868257300,4.73925732421875,-0.0008824488613754511,0.0015279706567525864,-0.001325845718383789
1772789554878323200,4.7493232421875,0.0012398813851177692,-0.001672942191362381,-0.00047998945228755474
1772789554888389400,4.759389404296875,-0.000049088383093476295,0.0012240447103977203,0.0006566477240994573
1772789554898455300,4.769455322265625,-0.0020295297726988792,-0.0021991943940520287,-0.0013079036725685
1772789554908520200,4.779520263671875,-0.002677743323147297,-0.0016138311475515366,0.00037974148290231824
1772789554918586400,4.78958642578125,0.0016392712714150548,-0.00028468575328588486,0.0014971464406698942
1772789554928652300,4.79965234375,-0.00009364751167595387,-0.000009315088391304016,0.0006593160796910524
1772789554938718200,4.80971826171875,-0.0012426935136318207,0.0017264718189835548,-0.0006422543665394187
1772789554948784400,4.819784423828125,0.001133911544457078,-0.0007175114005804062,0.00018732028547674417
1772789554958850300,4.829850341796875,0.0014400403015315533,-0.001155131496489048,-0.00010629312600940466
1772789554968916500,4.83991650390625,0.00037610740400850773,0.00421619787812233,0.0008199543226510286
1772789554978982100,4.849982177734375,0.002837040927261114,-0.00010002497583627701,-0.0019194328924641013
1772789554989048300,4.86004833984375,-0.00009243609383702278,0.0011484650894999504,-0.0019324823515489697
1772789554999114200,4.8701142578125,-0.002017851686105132,-0.000606834888458252,-0.0005999535787850618
1772789555009180400,4.880180419921875,0.001810708548873663,-0.001413240097463131,-0.00014615088002756238
1772789555019246300,4.890246337890625,-0.002008522627875209,-0.000850689597427845,0.0004984738770872355
1772789555029311500,4.9003115234375,0.0005284047219902277,0.0005187075585126877,-0.0011803829111158848
1772789555039377200,4.910377197265625,-0.0001384355127811432,0.0004184627905488014,-0.0009687370038591325
1772789555049443300,4.920443359375,-0.000049486057832837105,0.00028530508279800415,-0.0002629993250593543
1772789555059509200,4.93050927734375,-0.00210537645034492,-0.0007367674261331558,-0.0006632341537624598
1772789555069575400,4.940575439453125,-0.0006305177230387926,-0.0015602167695760727,-0.00010636716615408659
1772789555079641300,4.950641357421875,-0.00044699059799313545,0.00012376811355352402,-0.00023710011737421155
1772789555089707300,4.960707275390625,-0.0021522128954529762,0.001706218346953392,-0.002428082749247551
1772789555099773400,4.9707734375,-0.001638761255890131,0.0015405425801873207,-0.0032902099192142487
1772789555109839000,4.980839111328125,-0.0002006541471928358,-0.0012864023447036743,-0.0017248040530830622
1772789555119905300,4.9909052734375,0.000273305457085371,-0.0007553603500127792,0.00251147523522377
1772789555129971200,5.00097119140625,-0.0013221942353993654,-0.0016235513612627983,-0.002541074063628912
1772789555140037400,5.011037353515625,0.0017313760472461581,-0.0006532697007060051,-0.000004327448550611734
1772789555150103300,5.021103271484375,0.0006693073082715273,-0.000688423402607441,0.005038900766521692
1772789555160168400,5.03116845703125,-0.0011171142105013132,0.0005336040630936623,-0.0002854838967323303
1772789555170234000,5.041234130859375,-0.0006931389216333628,0.0004361327737569809,-0.0010796384885907173
1772789555180300300,5.05130029296875,0.0023400885984301567,0.001970103941857815,-0.0005439468077383935
1772789555190366200,5.0613662109375,0.001945674535818398,0.0004409169778227806,0.0007522137020714581
1772789555200432400,5.071432373046875,-0.002326802583411336,-0.0008840374648571014,0.00008258828893303871
1772789555210498300,5.081498291015625,0.00012410455383360386,-0.0004816334694623947,0.0033428301103413105
1772789555220564500,5.091564453125,-0.0011574430391192436,-0.00033477041870355606,-0.0009422772563993931
1772789555230630400,5.10163037109375,0.00037627131678164005,-0.003108453005552292,-0.00006982567720115185
1772789555240696000,5.111696044921875,0.0003679243382066488,-0.0016936538740992546,0.001416568411514163
1772789555250762200,5.12176220703125,-0.0005383496172726154,0.00128083024173975,0.0016413391567766666
1772789555260828200,5.131828125,0.0010344835463911295,-0.0015728147700428963,-0.0001058373018167913
1772789555270894300,5.141894287109375,-0.0012350622564554214,0.0014733094722032547,0.00009043770842254162
1772789555280960300,5.151960205078125,-0.0021932784002274275,0.000344153493642807,0.0018268218263983727
1772789555291026400,5.1620263671875,0.0015308861620724201,-0.0009072655811905861,0.0006529006059281528
1772789555301092400,5.17209228515625,-0.002098569180816412,-0.000966186635196209,0.0014651865931227803
1772789555311157200,5.1821572265625,-0.0004237070679664612,-0.002042636275291443,-0.0014381916262209415
1772789555321223200,5.19222314453125,-0.001164277782663703,-0.00036812108010053635,-0.001560194417834282
1772789555331289300,5.202289306640625,0.0016533468151465058,-0.0018690787255764008,-0.0015141216572374105
1772789555341355300,5.212355224609375,-0.002070171758532524,0.0008867429569363594,0.0004911787691526115
1772789555351421200,5.222421142578125,0.0009027151390910149,0.0008039185777306557,-0.0005882004043087363
1772789555361487000,5.232487060546875,0.00027716788463294506,-0.0010362286120653152,-0.000048747577238827944
1772789555371553300,5.24255322265625,0.0003275016788393259,0.00033423490822315216,-0.000923595973290503
1772789555381619200,5.252619140625,0.0008788786362856627,-0.000032327137887477875,0.0017777497414499521
1772789555391685000,5.26268505859375,-0.0008508446626365185,-0.0006701545789837837,-0.00018713047029450536
1772789555401751300,5.272751220703125,0.0002410628367215395,0.0013202168047428131,0.0012837630929425359
1772789555411817200,5.282817138671875,0.00003866245970129967,-0.0007908707484602928,0.00015777861699461937
1772789555421883400,5.29288330078125,0.00039903540164232254,-0.001239696517586708,0.0014799495693296194
1772789555431949000,5.302948974609375,0.000057884491980075836,0.0012958990409970284,0.0009467846248298883
1772789555442014200,5.31301416015625,0.0012527317740023136,-0.0008484218269586563,0.0001614270731806755
1772789555452080000,5.323080078125,0.00003193877637386322,0.0005457429215312004,-0.00019490381237119436
1772789555462146300,5.333146240234375,-0.001052954699844122,-0.0013143159449100494,0.0004380245809443295
1772789555472212200,5.343212158203125,-0.00035147834569215775,-0.0019417563453316689,-0.0012389679905027151
1772789555482278100,5.353278076171875,-0.0007639932446181774,0.00021554715931415558,-0.0002088134060613811
1772789555492344000,5.363343994140625,0.0026363306678831577,0.0002546953037381172,-0.0006679423386231065
1772789555502410200,5.37341015625,-0.0010859703179448843,-0.00004203338176012039,0.0007376644061878324
1772789555512476200,5.38347607421875,-0.0002113881055265665,-0.00042126793414354324,-0.0006461140583269298
1772789555522542300,5.393542236328125,0.0017222502501681447,-0.0004909234121441841,-0.0022917459718883038
1772789555532608300,5.403608154296875,0.0007302227895706892,0.00023585371673107147,-0.0004680133715737611
1772789555542674200,5.413674072265625,-0.0027866200543940067,-0.0014651017263531685,-0.00003202661173418164
1772789555552740400,5.423740234375,0.003925877157598734,0.0014752941206097603,0.00009713671170175076
1772789555562806000,5.433805908203125,0.00019453465938568115,-0.000960194505751133,0.0020633763633668423
1772789555572871200,5.44387109375,-0.001182852080091834,0.0007554143667221069,-0.001383020542562008
1772789555582937300,5.453937255859375,0.0015803732676431537,0.00033700931817293167,0.00010637001832947135
1772789555593003300,5.464003173828125,-0.00113818165846169,-0.002168758772313595,-0.0020196314435452223
1772789555603069200,5.474069091796875,-0.00009257555939257145,-0.000337427482008934,-0.0007968253339640796
1772789555613135400,5.48413525390625,-0.0003897841088473797,-0.0007203901186585426,-0.000539031345397234
1772789555623201000,5.494200927734375,0.0015023585874587297,-0.000619642436504364,-0.00018436467507854104
1772789555633267200,5.50426708984375,-0.001811679219827056,-0.000619642436504364,-0.0005803767126053572
1772789555643333000,5.5143330078125,-0.00010401918552815914,-0.0036767954006791115,-0.00020994246006011963
1772789555653399300,5.5243994140625,-0.00044570257887244225,0.00018878374248743057,-0.00225791335105896
1772789555663465200,5.53446533203125,-0.0011359206400811672,0.0006133243441581726,0.00023425457766279578
1772789555673531400,5.544531494140625,-0.0002735892776399851,-0.000025035813450813293,0.0010435893200337887
1772789555683597300,5.554597412109375,-0.0034478039015084505,0.0003743823617696762,0.0010361470049247146
1772789555693663200,5.564663330078125,-0.0013638806995004416,0.0011019576340913773,-0.0015817403327673674
1772789555703729200,5.574729248046875,0.0013296115212142467,0.0018742848187685013,0.001070171594619751
1772789555713795000,5.584795166015625,-0.002513063373044133,0.0012849271297454834,-0.002844941569492221
1772789555723860200,5.594860107421875,0.00028036185540258884,0.0006146552041172981,0.0016609241720288992
1772789555733926400,5.604926513671875,-0.0008570742793381214,0.0004495391622185707,-0.001213425537571311
1772789555743992300,5.614992431640625,0.0022902293130755424,0.000021425075829029083,0.0004761131713166833
1772789555754058200,5.625058349609375,0.001725905342027545,-0.0003793807700276375,-0.0004799616290256381
1772789555764124200,5.635124267578125,0.002758297137916088,0.00037102866917848587,-0.0013652904890477657
1772789555774190000,5.645190185546875,0.0006259039510041475,0.0017705205827951431,-0.001969828037545085
1772789555784256300,5.65525634765625,-0.0003659070935100317,0.002730141393840313,-0.00006067543290555477
1772789555794322200,5.665322265625,0.0008690007962286472,-0.00011278316378593445,-0.0008612216915935278
1772789555804388400,5.675388427734375,-0.0012654431629925966,-0.0009360918775200844,-0.0006564854993484914
1772789555814454300,5.685454345703125,0.002261647256091237,0.00024954695254564285,0.001856207032687962
1772789555824520200,5.695520263671875,-0.00008319062180817127,0.0006211297586560249,0.00014511431800201535
1772789555834586000,5.705586181640625,0.0006321344990283251,0.001266947016119957,-0.00012066913768649101
1772789555844652300,5.71565234375,0.000443427124992013,-0.001502123661339283,0.001491553382948041
1772789555854718200,5.72571826171875,0.0013678104151040316,-0.00038466136902570724,0.0003924668417312205
1772789555864783400,5.735783447265625,-0.00037737609818577766,0.004652256146073341,0.0007597350631840527
1772789555874849300,5.745849365234375,0.0017651369562372565,-0.0018205568194389343,0.0016289909835904837
1772789555884915200,5.755915283203125,0.0007192608900368214,0.0032840901985764503,-0.0015053479000926018
1772789555894981000,5.765981201171875,0.0019056990277022123,0.001963960938155651,0.000751947402022779
1772789555905047300,5.77604736328125,-0.0005736341699957848,0.0010372139513492584,-0.0006299241213127971
1772789555915113200,5.78611328125,0.00021226448006927967,0.00014745257794857025,0.0008880776586011052
1772789555925179100,5.79617919921875,0.00009597791358828545,-0.0005406858399510384,-0.00017455784836784005
1772789555935245300,5.806245361328125,0.000493321567773819,0.0003613261505961418,0.0001953552127815783
1772789555945311200,5.816311279296875,-0.001982650952413678,-0.00019674748182296753,-0.002921096747741103
1772789555955377400,5.82637744140625,0.002024873858317733,0.00022536329925060272,0.001700020395219326
1772789555965443000,5.836443115234375,0.00003381841816008091,0.0004992987960577011,-0.0010640411637723446
1772789555975509200,5.84650927734375,-0.0007856362499296665,-0.001306590624153614,-0.0029237265698611736
1772789555985575200,5.8565751953125,0.0009672143496572971,0.0002784412354230881,-0.003894280409440398
1772789555995641300,5.866641357421875,-0.0018789058085530996,0.00027018506079912186,-0.0008931642514653504
1772789556005707300,5.876707275390625,-0.001992367208003998,-0.00009137485176324844,0.00166948267724365
1772789556015772400,5.8867724609375,-0.000042667146772146225,0.002347281202673912,0.00035041908267885447
1772789556025838000,5.896838134765625,0.0006582711357623339,0.0007088407874107361,0.0003754745703190565
1772789556035904300,5.906904296875,-0.0010472170542925596,0.002073977142572403,-0.0012671630829572678
1772789556045970200,5.91697021484375,-0.0005110912024974823,0.0018510790541768074,0.00025609455769881606
1772789556056036400,5.927036376953125,-0.0007395907305181026,0.002172522246837616,-0.0016906762029975653
1772789556066102300,5.937102294921875,-0.0010148389264941216,0.002583274617791176,-0.0013493490405380726
1772789556076168200,5.947168212890625,0.0006847905460745096,-0.0021331841126084328,-0.0009629244450479746
1772789556086234400,5.957234375,-0.0033950337674468756,0.000645889900624752,-0.0004167808510828763
1772789556096300000,5.967300048828125,-0.0001720762811601162,0.0011598793789744377,0.0003446168848313391
1772789556106366200,5.9773662109375,-0.00029546814039349556,0.00008860789239406586,-0.002246420830488205
1772789556116432100,5.98743212890625,0.0005594063550233841,0.00009047240018844604,-0.0030307217966765165
1772789556126498300,5.997498291015625,-0.001019056187942624,0.000132683664560318,0.00016379158478230238
1772789556136564200,6.007564208984375,-0.00041771424002945423,0.002036844380199909,0.002833876758813858
1772789556146630400,6.01763037109375,-0.0011611445806920528,-0.0012164311483502388,0.00038747716462239623
1772789556156695000,6.027695068359375,0.0009219800122082233,0.0007724175229668617,-0.0023313439451158047
1772789556166761200,6.03776123046875,-0.001961071975529194,0.0017806822434067726,-0.0022515100426971912
1772789556176827100,6.0478271484375,-0.0023709326051175594,0.0018936004489660263,0.0002808899153023958
1772789556186893300,6.057893310546875,-0.0004036871250718832,0.0016656983643770218,0.0008475180948153138
1772789556196959200,6.067959228515625,0.0014280350878834724,0.0002720663323998451,-0.0009272124734707177
1772789556207025400,6.078025390625,-0.001528728986158967,-0.00023773405700922012,0.00014514534268528223
1772789556217091300,6.08809130859375,0.0016795810079202056,0.00180837232619524,0.0006295742932707071
1772789556227157000,6.098156982421875,-0.0010742153972387314,-0.00023427605628967285,-0.002050007227808237
1772789556237223200,6.10822314453125,-0.00015196274034678936,-0.000043859705328941345,0.0005721411434933543
1772789556247289000,6.1182890625,-0.0015771484468132257,0.00228985957801342,-0.00006498763104900718
1772789556257355300,6.128355224609375,-0.0009182824287563562,-0.00005239062011241913,-0.0004759133735205978
1772789556267421200,6.138421142578125,-0.002012074925005436,0.00027396250516176224,-0.00003050127997994423
1772789556277487400,6.1484873046875,-0.00046957191079854965,-0.00027065351605415344,0.0002019926905632019
1772789556287553300,6.15855322265625,-0.0015527706127613783,-0.0003768615424633026,-0.0025438820011913776
1772789556297619500,6.168619384765625,-0.0016616939101368189,0.0018332963809370995,-0.0002935109951067716
1772789556307685000,6.17868505859375,0.0016774083487689495,-0.0012278296053409576,0.0010602594120427966
1772789556317750300,6.188750244140625,-0.00396316684782505,0.0014023082330822945,0.0004514608299359679
1772789556327816200,6.198816162109375,-0.00033258041366934776,-0.0007655629888176918,-0.002644618973135948
1772789556337882400,6.20888232421875,-0.0012724101543426514,0.0007162196561694145,-0.0017141106072813272
1772789556347948300,6.2189482421875,-0.000815599225461483,0.0027387579903006554,-0.0009892689995467663
1772789556358014500,6.229014404296875,0.00005765119567513466,0.0010969191789627075,0.0019114459864795208
1772789556368080100,6.239080078125,-0.0034441628959029913,-0.001032528467476368,0.0004799382295459509
1772789556378146000,6.24914599609375,0.00039371871389448643,0.00003353506326675415,-0.0001973035978153348
1772789556388212200,6.259212158203125,-0.0007236627861857414,-0.0006628325209021568,0.0011104680597782135
1772789556398278100,6.269278076171875,0.0017690559616312385,0.002151861786842346,0.0009496129932813346
1772789556408344300,6.27934423828125,0.00020651309750974178,-0.0006613573059439659,0.0023824861273169518
1772789556418410200,6.28941015625,-0.00002970942296087742,-0.00029410794377326965,0.0018828772008419037
1772789556428476400,6.299476318359375,-0.0008905734866857529,-0.0014414247125387192,0.000045138702262192965
1772789556438542000,6.3095419921875,-0.00030680885538458824,-0.000025155022740364075,0.0009061386226676404
1772789556448608300,6.319608154296875,-0.000137584051117301,-0.0012720534577965736,0.0003804959123954177
1772789556458674200,6.329674072265625,0.00008505606092512608,-0.0017154701054096222,0.0007272395305335522
1772789556468739300,6.3397392578125,-0.0032032502349466085,0.0010737832635641098,-0.0018969987286254764
1772789556478805200,6.34980517578125,-0.0021252024453133345,-0.0006476836279034615,0.0007834729040041566
1772789556488871400,6.359871337890625,-0.0009984851349145174,-0.0020365240052342415,-0.0003509173111524433
1772789556498937000,6.36993701171875,-0.00040167057886719704,0.000690818764269352,0.0014318027533590794
1772789556509003300,6.380003173828125,-0.00023661344312131405,0.0013802461326122284,0.0012132374104112387
1772789556519069200,6.390069091796875,-0.0009245080873370171,0.0018098140135407448,0.002332830335944891
1772789556529135000,6.400135009765625,-0.0005622138269245625,0.00160903949290514,-0.0015082336030900478
1772789556539201300,6.410201171875,0.00008173868991434574,-0.0004589054733514786,0.002588773611932993
1772789556549267200,6.42026708984375,-0.00041312258690595627,0.001198875717818737,-0.0029726121574640274
1772789556559333400,6.43033349609375,-0.0001236370299011469,0.0010659834370017052,-0.001096947817131877
1772789556569399000,6.44039892578125,0.0015919773140922189,0.0007207952439785004,0.0014688526280224323
1772789556579465200,6.45046533203125,-0.0020584173034876585,-0.0019562141969799995,-0.0013503695372492075
1772789556589531100,6.46053125,0.0003610586281865835,-0.001829591579735279,-0.0013807530049234629
1772789556599597300,6.470597412109375,-0.0021031643263995647,0.0008676573634147644,-0.0013764919713139534
1772789556609663200,6.480663330078125,0.0007959662470966578,-0.002847416326403618,-0.00013318838318809867
1772789556619728400,6.490728271484375,0.0003980898763984442,-0.0007528401911258698,-0.0043678805232048035
1772789556629794000,6.5007939453125,0.002486148849129677,0.0012018019333481789,0.0010808078804984689
1772789556639860200,6.510860107421875,0.0009228731505572796,0.0008289599791169167,-0.00035783168277703226
1772789556649926100,6.520926025390625,-0.0015436597168445587,-0.000051398761570453644,-0.0028344164602458477
1772789556659992300,6.530992431640625,0.0003045741468667984,-0.0013510221615433693,0.0014133256627246737
1772789556670058200,6.541058349609375,0.0011656451970338821,0.0016068732365965843,-0.0017062451224774122
1772789556680124200,6.551124267578125,-0.0007030947599560022,0.002447633072733879,0.004377746023237705
1772789556690190300,6.5611904296875,-0.0012354138307273388,-0.0012633111327886581,0.002744186669588089
1772789556700256000,6.571256103515625,0.0003765977453440428,0.0009092958644032478,0.0020770649425685406
1772789556710322200,6.581322265625,0.0014776559546589851,0.001586860977113247,-0.0003255960182286799
1772789556720388000,6.59138818359375,-0.0004440811462700367,0.0009716711938381195,-0.0023099174723029137
1772789556730454300,6.601454345703125,0.0026460718363523483,0.00007151346653699875,-0.0015233438462018967
1772789556740520200,6.611520263671875,0.001744059263728559,-0.0014568744227290154,0.00024898984702304006
1772789556750586400,6.62158642578125,-0.0002436055801808834,0.00002745073288679123,0.0006096087745390832
1772789556760652300,6.63165234375,-0.00045878905802965164,-0.001249002292752266,0.0006351750926114619
1772789556770717200,6.64171728515625,-0.0009277334902435541,0.000015014782547950745,0.0025828275829553604
1772789556780783000,6.651783203125,-0.001489127753302455,0.0029069408774375916,-0.0005557076074182987
1772789556790849300,6.661849365234375,-0.0017737869638949633,-0.0022979509085416794,0.0003854568349197507
1772789556800915200,6.671915283203125,-0.0008832260500639677,-0.00047395098954439163,0.00023418926866725087
1772789556810981400,6.6819814453125,0.0005064310971647501,0.0007088687270879745,-0.0008955998346209526
1772789556821047300,6.69204736328125,0.0007029722910374403,0.0008273795247077942,0.00041201221756637096
1772789556831113200,6.70211328125,-0.0005345004610717297,0.0009344890713691711,0.0019367714412510395
1772789556841179100,6.71217919921875,-0.0009608729742467403,-0.0021425271406769753,-0.0009418393019586802
1772789556851245000,6.7222451171875,-0.0015527380164712667,0.00038948096334934235,-0.003748046699911356
1772789556861311200,6.732311279296875,-0.000021154293790459633,0.0008238423615694046,0.0006235321052372456
1772789556871377200,6.742377197265625,-0.0012234265450388193,-0.001969235949218273,0.0007781902095302939
1772789556881443300,6.752443359375,-0.0022977457847446203,0.001787419430911541,-0.0001957278000190854
1772789556891509200,6.76250927734375,-0.003354183165356517,0.0013403650373220444,-0.00040103011997416615
1772789556901575400,6.772575439453125,-0.0010217868257313967,-0.0006378311663866043,-0.0016236873343586922
1772789556911641000,6.78264111328125,-0.000754933338612318,0.0010042954236268997,-0.0005583912716247141
1772789556921706200,6.792706298828125,0.0014578874688595533,-0.0029925769194960594,0.0011710654944181442
1772789556931772200,6.802772216796875,-0.000456077279523015,0.00135841965675354,0.002755124820396304
1772789556941838300,6.81283837890625,-0.0009178693871945143,0.00012670736759901047,-0.0004835454747080803
1772789556951904300,6.822904296875,-0.0006312525365501642,-0.000536070205271244,0.003834968898445368
1772789556961970400,6.832970458984375,-0.002173488726839423,-0.0007123714312911034,0.0030213729478418827
1772789556972036000,6.8430361328125,0.0009791073389351368,0.0006165318191051483,0.0019376332638785243
1772789556982102300,6.853102294921875,-0.0012254572939127684,0.0007502222433686256,-0.00184219132643193
1772789556992168200,6.863168212890625,-0.0011104692239314318,-0.00008316803723573685,-0.0007961639785207808
1772789557002234000,6.873234130859375,0.00283287325873971,0.00128250103443861,0.00021557090803980827
1772789557012300300,6.88330029296875,-0.0001355414278805256,0.0020395945757627487,-0.0008437306387349963
1772789557022366200,6.8933662109375,0.0002847053110599518,-0.00014073587954044342,-0.0013736996334046125
1772789557032432400,6.903432373046875,-0.0017447604332119226,0.0014963345602154732,-0.0021525276824831963
1772789557042498000,6.913498046875,0.0006488887593150139,0.00373259000480175,-0.0019091148860752583
1772789557052564200,6.923564208984375,0.0006494969129562378,-0.00039827264845371246,-0.0001081129303202033
1772789557062629000,6.933629150390625,-0.0033899855334311724,-0.00267048180103302,-0.0018133349949494004
1772789557072695300,6.9436953125,0.0008761330973356962,-0.001826777122914791,-0.000675730814691633
1772789557082761200,6.95376123046875,-0.001079692505300045,0.0017344020307064056,0.0008417383069172502
1772789557092827400,6.963827392578125,-0.00019496283493936062,-0.00026448536664247513,0.0005800965009257197
1772789557102893000,6.97389306640625,0.000031938543543219566,-0.0010296115651726723,-0.003253523726016283
1772789557112959200,6.983959228515625,0.0009509955998510122,-0.000930463895201683,0.001625708886422217
1772789557123025200,6.994025146484375,-0.0022394713014364243,-0.0008598901331424713,0.0017892267787829041
1772789557133091300,7.00409130859375,-0.0009738027583807707,-0.0006691059097647667,0.0030119125731289387
1772789557143157200,7.0141572265625,0.0017359635094180703,-0.00011676643043756485,0.0015788656892254949
1772789557153223200,7.02422314453125,-0.0017981254495680332,-0.0010538632050156593,-0.0012685018591582775
1772789557163289300,7.034289306640625,-0.00041461316868662834,0.000019391067326068878,0.0024133180268108845
1772789557173355300,7.044355224609375,-0.0011136678513139486,-0.0014533177018165588,-0.0018100582528859377
1772789557183421200,7.054421142578125,-0.0005642578471451998,0.0009184936061501503,0.00033458537654951215
1772789557193487000,7.064487060546875,-0.000021511223167181015,0.0013764547184109688,0.0008334493031725287
1772789557203552300,7.07455224609375,0.0029039711225777864,-0.001138102263212204,0.0009173388825729489
1772789557213618200,7.0846181640625,0.0005734534934163094,-0.002072390168905258,-0.0022785384207963943
1772789557223684400,7.094684326171875,0.0010160708334296942,-0.0008715707808732986,-0.0012012897059321404
1772789557233750300,7.104750244140625,0.001352781429886818,0.0018026437610387802,-0.00017909769667312503
1772789557243816200,7.114816162109375,-0.00018119928427040577,0.0006713327020406723,0.0010163952829316258
1772789557253882000,7.124882080078125,-0.002130125416442752,-0.0005903923884034157,0.00022936152527108788
1772789557263948300,7.1349482421875,-0.00037962966598570347,0.002778773196041584,-0.00043536347220651805
1772789557274014200,7.14501416015625,0.00003029732033610344,0.0017100246623158455,-0.00011958286631852388
1772789557284080400,7.155080322265625,0.0011360417120158672,0.0003872327506542206,-0.000016784819308668375
1772789557294146300,7.165146240234375,0.0016321437433362007,0.0006184028461575508,0.0004916878533549607
1772789557304212200,7.175212158203125,-0.00024964590556919575,-0.0014295680448412895,-0.0004691806680057198
1772789557314278100,7.185278076171875,0.0014413588214665651,-0.0010567689314484596,-0.00004967855056747794
1772789557324344000,7.195343994140625,0.0007958086207509041,0.000415959395468235,0.0008296971791423857
1772789557334409200,7.2054091796875,0.0020198780111968517,0.0005699703469872475,0.0027461512945592403
1772789557344476200,7.21547607421875,-0.00016071810387074947,-0.0008921045809984207,0.00013545452384278178
1772789557354542300,7.225542236328125,-0.000915011391043663,-0.0027692606672644615,0.0013802973553538322
1772789557364608300,7.235608154296875,-0.001471878495067358,-0.001062707044184208,-0.0008924442809075117
1772789557374674400,7.24567431640625,-0.00015930738300085068,-0.002023671753704548,0.002959618577733636
1772789557384740400,7.255740234375,-0.0016136595513671637,0.0003851577639579773,0.00010151404421776533
1772789557394806300,7.26580615234375,-0.0032924737315624952,0.001524043269455433,0.0017653662944212556
1772789557404872400,7.27587255859375,0.002589383628219366,-0.000942576676607132,0.001174677163362503
1772789557414938000,7.285938232421875,0.0014687026850879192,-0.0016273949295282364,0.000690972141455859
1772789557425004300,7.29600439453125,0.0002657528966665268,0.0012781135737895966,-0.00033301327493973076
1772789557435070200,7.3060703125,-0.0012687768321484327,-0.0006832266226410866,0.0008268438396044075
1772789557445136400,7.316136474609375,0.00018131430260837078,0.0011546211317181587,0.000587692076805979
1772789557455201300,7.326201171875,0.000052573857828974724,-0.0018859589472413063,-0.000852827972266823
1772789557465267500,7.336267333984375,-0.0010747420601546764,-0.000995664857327938,0.0005322820506989956
1772789557475333000,7.3463330078125,0.002731649437919259,0.0013565989211201668,0.001143622095696628
1772789557485399300,7.3563994140625,0.0001811401452869177,-0.003131360746920109,-0.000698486459441483
1772789557495465200,7.36646533203125,0.0020862664096057415,0.00129633117467165,-0.001126533723436296
1772789557505531400,7.376531494140625,-0.00042695854790508747,0.0007839389145374298,-0.001111619989387691
1772789557515597300,7.386597412109375,-0.001964637776836753,-0.0006719473749399185,0.0006319965468719602
1772789557525663500,7.39666357421875,-0.002238410757854581,-0.0006666211411356926,-0.0010753560345619917
1772789557535729400,7.4067294921875,0.00040351739153265953,-0.001922857016324997,0.0027957779821008444
1772789557545795300,7.41679541015625,0.0002245528157800436,0.0004215240478515625,-0.00022025196813046932
1772789557555861200,7.426861328125,-0.0008470108732581139,-0.0006080335006117821,-0.00205025402829051
1772789557565927200,7.43692724609375,0.0006068088114261627,-0.0016192356124520302,-0.0020723582711070776
1772789557575993300,7.446993408203125,-0.000011604046449065208,0.00024231430143117905,0.0008502455311827362
1772789557586058500,7.45705859375,-0.001016414724290371,0.0012583108618855476,-0.0014603129820898175
1772789557596124400,7.46712451171875,-0.0010410482063889503,0.0016507692635059357,0.0016217520460486412
1772789557606190000,7.477190185546875,-0.0026629134081304073,-0.0025453073903918266,-0.001507994718849659
1772789557616256300,7.48725634765625,0.000953418668359518,0.0009971437975764275,0.0034079784527420998
1772789557626322200,7.497322265625,0.00043623289093375206,0.0011169863864779472,-0.001139901578426361
1772789557636388400,7.507388427734375,0.0014609242789447308,-0.0006925379857420921,0.00020650896476581693
1772789557646454300,7.517454345703125,0.0026281876489520073,-0.0009079873561859131,-0.0008611523080617189
1772789557656520400,7.5275205078125,0.0014476790092885494,0.00040802452713251114,-0.0002388135762885213
1772789557666586400,7.53758642578125,-0.0011643492616713047,0.001729751005768776,0.001446168520487845
1772789557676652300,7.54765234375,0.0009449215140193701,0.00007106456905603409,-0.0010991872986778617
1772789557686718200,7.55771826171875,0.000024266773834824562,0.0003869161009788513,0.0007037727627903223
1772789557696784400,7.567784423828125,0.00041491584852337837,0.0005659759044647217,0.0005820895894430578
1772789557706849300,7.577849365234375,-0.0002708481624722481,-0.0009107468649744987,-0.0011929073370993137
1772789557716915500,7.58791552734375,-0.0011790504213422537,-0.00007016584277153015,-0.0007259504054673016
1772789557726981400,7.5979814453125,-0.0019676124211400747,0.0010033538565039635,0.0005081584677100182
1772789557737047300,7.60804736328125,0.003942407667636871,-0.0019544223323464394,0.0007187501178123057
1772789557747113200,7.61811328125,0.00014793570153415203,0.0004107309505343437,-0.0016661107074469328
1772789557757179100,7.62817919921875,0.00013283942826092243,0.0017345361411571503,0.003102012211456895
1772789557767245300,7.638245361328125,-0.0011097914539277554,-0.0018487470224499702,-0.000851184013299644
1772789557777311200,7.648311279296875,0.0017184405587613583,0.0024009747430682182,0.0004236737731844187
1772789557787377400,7.65837744140625,0.003528857370838523,-0.002570880576968193,-0.004017679952085018
1772789557797443300,7.668443359375,-0.0011971562635153532,-0.0016363589093089104,0.0016179215162992477
1772789557807509500,7.678509521484375,-0.00016864342615008354,0.00353896152228117,-0.0007546886336058378
1772789557817574100,7.68857421875,-0.00045410566963255405,-0.0014275508001446724,0.00044678704580292106
1772789557827640300,7.698640380859375,-0.0006106996443122625,0.0002542361617088318,-0.0015846721362322569
1772789557837706200,7.708706298828125,-0.0007538087666034698,0.0008085714653134346,0.0014587927144020796
1772789557847772400,7.7187724609375,-0.001208942849189043,-0.0012109028175473213,0.0006289517623372376
1772789557857838300,7.72883837890625,-0.0013787862844765186,-0.000009100884199142456,-0.002864215523004532
1772789557867904500,7.738904541015625,-0.0010394994169473648,0.0005099484696984291,-0.001692158286459744
1772789557877970200,7.74897021484375,0.00037599424831569195,0.0014178398996591568,0.0005514934309758246
1772789557888036400,7.759036376953125,-0.0009191010612994432,-0.0005675461143255234,0.000865213864017278
1772789557898102300,7.769102294921875,-0.00045002507977187634,-0.0005217036232352257,0.0010231432970613241
1772789557908168200,7.779168212890625,-0.0033051997888833284,0.0004966892302036285,0.005636803340166807
1772789557918234400,7.789234375,0.0004916659090667963,0.0029051080346107483,-0.0010745051549747586
1772789557928299500,7.799299560546875,-0.0008910472970455885,0.000648079439997673,-0.0012018042616546154
1772789557938365200,7.809365234375,-0.00029338477179408073,0.00006118696182966232,0.0008083835709840059
1772789557948431400,7.819431396484375,-0.0006731515750288963,-0.00003761705011129379,-0.0019716904498636723
1772789557958497300,7.829497314453125,-0.0013639854732900858,0.0005124500021338463,0.0005870620370842516
1772789557968563200,7.839563232421875,-0.0019474842119961977,-0.0014082221314311028,-0.0004963119281455874
1772789557978629400,7.84962939453125,0.0012917513959109783,-0.0006123790517449379,-0.00034584212698973715
1772789557988695300,7.8596953125,0.000719704432412982,-0.003170611336827278,0.0016858833841979504
1772789557998761500,7.869761474609375,-0.0000334656797349453,-0.0010828897356987,0.0014545762678608298
1772789558008827100,7.8798271484375,-0.0020657239947468042,-0.00017262157052755356,0.0016212902264669538
1772789558018893300,7.889893310546875,-0.0008945523295551538,0.000727563165128231,0.00051698466995731
1772789558028958200,7.899958251953125,-0.0016905709635466337,0.0008905483409762383,-0.002210624748840928
1772789558039024400,7.9100244140625,-0.00150775583460927,-0.00041483622044324875,-0.004361025057733059
1772789558049090300,7.92009033203125,0.0001870796550065279,-0.0027253953740000725,0.002523246221244335
1772789558059156500,7.930156494140625,-0.0008771456778049469,-0.0010478422045707703,0.0013910509878769517
1772789558069222100,7.94022216796875,-0.0006632939912378788,-0.0026262979954481125,-0.0014436175115406513
1772789558079288300,7.950288330078125,0.0018094704719260335,-0.0022909892722964287,0.0012408470502123237
1772789558089354200,7.960354248046875,0.001584965968504548,0.0017759231850504875,-0.0012465453473851085
1772789558099420400,7.97042041015625,0.00007522990927100182,-0.0015257364138960838,-0.004341994412243366
1772789558109486300,7.980486328125,-0.0005450204480439425,0.0007563261315226555,0.0019420002354308963
1772789558119552300,7.99055224609375,0.0013141031377017498,0.0017817383632063866,0.001139951404184103
1772789558129617200,8.0006171875,0.0022613895125687122,0.0017479164525866508,-0.000585510628297925
1772789558139683300,8.010683349609375,0.0007301163859665394,-0.0008001914247870445,0.0027600163593888283
1772789558149749200,8.020749267578125,0.0004912307485938072,-0.0003336053341627121,-0.0006341823027469218
1772789558159815400,8.0308154296875,0.0001657889224588871,-0.0006752079352736473,-0.0022377234417945147
1772789558169881300,8.04088134765625,-0.0002845514100044966,0.0014601144939661026,-0.00048270029947161674
1772789558179947300,8.050947265625,-0.0014632015954703093,-0.0006105285137891769,-0.002227344550192356
1772789558190013400,8.061013427734375,-0.00046851090155541897,-0.0001948084682226181,0.0001535214832983911
1772789558200079000,8.0710791015625,-0.0014219351578503847,0.00019570905715227127,0.00010478514013811946
1772789558210144300,8.081144287109375,0.00042842933908104897,-0.0005236109718680382,-0.0010683373548090458
1772789558220210400,8.09121044921875,-0.0006266904529184103,-0.003694280982017517,-0.0009966009529307485
1772789558230276400,8.1012763671875,0.0025403404142707586,-0.0001498805359005928,0.0018239528872072697
1772789558240342300,8.11134228515625,0.0019242895068600774,-0.0004534674808382988,-0.0006927502690814435
1772789558250408400,8.121408447265624,0.00039350450970232487,-0.0023568281903862953,-0.0014991554198786616
1772789558260474000,8.13147412109375,-0.000010094838216900826,-0.00025327596813440323,-0.0004784397897310555
1772789558270540300,8.141540283203126,-0.0007709600031375885,-0.00042078830301761627,0.000817454420030117
1772789558280606200,8.151606201171875,-0.0009240556973963976,0.0010312888771295547,-0.0005541511927731335
1772789558290672400,8.16167236328125,0.0007958139758557081,0.0011455388739705086,-0.002461506985127926
1772789558300738300,8.17173828125,0.00005853152833878994,-0.0015283310785889626,0.003328216029331088
1772789558310803500,8.181803466796875,0.00002657342702150345,0.00007968489080667496,-0.0015914414543658495
1772789558320869000,8.191869140625,0.001416980754584074,-0.0007296912372112274,0.0008661791798658669
1772789558330935300,8.201935302734375,0.00004571909084916115,0.0005462290719151497,-0.0009743314003571868
1772789558341001200,8.212001220703126,0.0015089462976902723,-0.0007795905694365501,-0.0007740807486698031
1772789558351065900,8.22206591796875,0.0002812291495501995,0.00022229086607694626,0.00020729406969621778
1772789558361132000,8.232132080078125,0.00028255139477550983,0.002079969272017479,-0.00022894068388268352
1772789558371198000,8.242197998046874,0.00027642608620226383,-0.0001464327797293663,0.00034204102121293545
1772789558381264000,8.252263916015625,0.0040918514132499695,-0.0009559998288750648,-0.00005019753007218242
1772789558391330000,8.262330078125,-0.0002616182900965214,0.001023261807858944,0.0012486260384321213
1772789558401396000,8.27239599609375,0.00007071485742926598,-0.0007385388016700745,-0.001124521717429161
1772789558411460900,8.2824609375,0.0008526190649718046,0.0002678697928786278,-0.00104995328001678
1772789558421526800,8.29252685546875,0.0030171384569257498,0.00067946407943964,-0.0005865698331035674
1772789558431593000,8.302593017578126,-0.0006431099027395248,0.0004288600757718086,0.0021231966093182564
1772789558441659000,8.312658935546875,0.00024187099188566208,-0.0006368961185216904,0.0008428472792729735
1772789558451725000,8.32272509765625,0.0024807904846966267,-0.0009487522765994072,0.0027105221524834633
1772789558461791000,8.332791015625,0.0015265278052538633,0.00003531109541654587,0.0007528895512223244
1772789558471857200,8.342857177734375,0.0008381006773561239,-0.0009268894791603088,0.0009622139623388648
1772789558481922800,8.3529228515625,-0.0008568842895328999,0.000257137231528759,0.000291052449028939
1772789558491989000,8.362989013671875,0.0009282324463129044,0.0019993772730231285,0.0004204820143058896
1772789558502054000,8.373053955078126,-0.0011279911268502474,-0.0004147114232182503,0.002830119803547859
1772789558512120000,8.3831201171875,0.00023528095334768295,0.00038983020931482315,0.0009267585701309144
1772789558522186000,8.39318603515625,0.002451698761433363,0.0025150366127490997,-0.0000750115723349154
1772789558532252200,8.403252197265624,0.00012542749755084515,-0.0015968838706612587,-0.0001354653504677117
1772789558542317800,8.41331787109375,0.0001313455868512392,0.0007993848994374275,0.00005672435509040952
1772789558552384000,8.423384033203124,-0.000397292198613286,0.00023559387773275375,-0.0001467411348130554
1772789558562450000,8.433449951171875,-0.0007867584936320782,-0.0002872804179787636,0.0015058638527989388
1772789558572515800,8.443515869140626,-0.0016826456412672997,-0.0016345735639333725,-0.0010166824795305729
1772789558582582000,8.45358203125,0.0015828225295990705,-0.0008576530963182449,0.001635412685573101
1772789558592647200,8.463647216796875,-0.00035942066460847855,0.002125886268913746,0.001007172977551818
1772789558602712800,8.473712890625,0.0003625466488301754,0.000886787660419941,0.0004997613723389804
1772789558612779000,8.483779052734375,-0.00033120671287178993,-0.00011109933257102966,0.0011943138670176268
1772789558622845000,8.493844970703124,0.0006810168270021677,-0.0005026934668421745,-0.0023766104131937027
1772789558632910800,8.503910888671875,0.000060766469687223434,0.0004467237740755081,0.0000729650491848588
1772789558642977000,8.51397705078125,-0.000040961895138025284,-0.0015771836042404175,0.001971571007743478
1772789558653043000,8.52404296875,0.000661846250295639,-0.0022813240066170692,-0.0004002402420155704
1772789558663109000,8.534109130859376,-0.00007637077942490578,-0.0004643043503165245,-0.0008385151741094887
1772789558673175000,8.544175048828125,-0.000364258186891675,0.0012473100796341896,0.0003628367558121681
1772789558683240000,8.554239990234375,0.003665804397314787,0.003119531087577343,0.0006334710633382201
1772789558693305900,8.564305908203124,-0.000900984276086092,-0.000009150244295597076,0.001954132691025734
1772789558703372000,8.5743720703125,0.000586637994274497,-0.0009871963411569595,-0.0005557131371460855
1772789558713438000,8.58443798828125,-0.00045439181849360466,-0.0015089092776179314,0.00009276659693568945
1772789558723504000,8.594504150390625,0.0006674889009445906,-0.0009937295690178871,0.0013098819181323051
1772789558733569800,8.60456982421875,-0.00020496267825365067,-0.000788666307926178,-0.00048082746798172593
1772789558743636000,8.614635986328125,-0.0007291773799806833,0.0022415388375520706,0.0007084071403369308
1772789558753702000,8.624701904296876,-0.00006631668657064438,0.0006894487887620926,0.0037984726950526237
1772789558763768000,8.63476806640625,0.000041613588109612465,-0.0019254907965660095,0.004623274318873882
1772789558773834000,8.644833984375,-0.00012882868759334087,0.0030945679172873497,-0.001134479884058237
1772789558783900000,8.65489990234375,-0.0009214177262037992,-0.0015953481197357178,0.0012830927735194564
1772789558793964800,8.66496484375,-0.0007610952015966177,-0.0006962642073631287,0.000023417582269757986
1772789558804031000,8.675031005859376,-0.0014114831574261189,0.0025321831926703453,-0.00038388915709219873
1772789558814097000,8.685096923828125,-0.0010988283902406693,0.0019862353801727295,0.0002992116496898234
1772789558824163000,8.6951630859375,-0.0004186425358057022,0.0027988050132989883,-0.0010710691567510366
1772789558834229000,8.70522900390625,-0.0011323695071041584,0.00048265326768159866,0.0006778286769986153
1772789558844295000,8.715294921875,-0.0022168271243572235,-0.000012055039405822754,0.00006284326082095504
1772789558854361000,8.725361083984374,0.0021390391048043966,0.0007232436910271645,-0.001344637363217771
1772789558864427000,8.735427001953125,-0.0007623541168868542,-0.00044277869164943695,0.0013681355630978942
1772789558874493000,8.745492919921874,0.00004165433347225189,0.0013995962217450142,-0.0011509484611451626
1772789558884558000,8.75555810546875,-0.0008044142741709948,0.0010219551622867584,0.002383052371442318
1772789558894624000,8.7656240234375,-0.000025706132873892784,-0.0017091166228055954,0.0006304260459728539
1772789558904690000,8.77568994140625,-0.001979852095246315,0.0014544576406478882,0.0015857985708862543
1772789558914756000,8.785756103515626,-0.002277859952300787,0.0011295517906546593,-0.001187084591947496
1772789558924822000,8.795822021484375,-0.0009492642711848021,-0.00005473196506500244,-0.0007338742143474519
1772789558934888000,8.805887939453125,0.0013013731222599745,-0.0005937553942203522,-0.0005780793144367635
1772789558944953900,8.815953857421874,-0.0008565583266317844,-0.0010196864604949951,0.0016253071371465921
1772789558955020000,8.82602001953125,-0.0002994248643517494,-0.0011930586770176888,0.0007051849388517439
1772789558965085000,8.8360849609375,0.00003115343861281872,0.0002561751753091812,0.0007121533271856606
1772789558975151000,8.846151123046875,0.002484723925590515,-0.0006311899051070213,-0.0029217300470918417
1772789558985217000,8.856217041015626,-0.000055227428674697876,-0.000400531105697155,0.0007106248522177339
1772789558995283000,8.866282958984375,0.0006907240021973848,-0.0005509993061423302,0.0005585583858191967
1772789559005348900,8.876348876953125,-0.0015805878210812807,0.0008767833933234215,0.0009087554062716663
1772789559015415000,8.8864150390625,0.00012596603482961655,0.0018336577340960503,0.0010384514462202787
1772789559025481000,8.89648095703125,0.0029183654114603996,0.0008766148239374161,0.0005392193561419845
1772789559035547100,8.906547119140624,-0.00005958136171102524,0.00003186054527759552,-0.0019710762426257133
1772789559045613000,8.916613037109375,0.0018899020506069064,-0.001784326508641243,-0.0007059701601974666
1772789559055678000,8.926677978515626,0.0007809617090970278,-0.00020507164299488068,0.0019095204770565033
1772789559065744000,8.936743896484375,-0.0002525807358324528,0.0014259470626711845,-0.0002429711166769266
1772789559075810000,8.94681005859375,-0.0006690993905067444,-0.002049745060503483,0.000743463693652302
1772789559085876000,8.9568759765625,-0.00034054764546453953,-0.00011501461267471313,-0.00041998326196335256
1772789559095942100,8.966942138671875,-0.00003614812158048153,-0.0030295774340629578,0.0005928168538957834
1772789559106008000,8.977008056640624,-0.0006233188323676586,0.0006141848862171173,0.0019745223689824343
1772789559116074000,8.987073974609375,-0.0004289080388844013,-0.00037331506609916687,0.0014344332739710808
1772789559126140000,8.997139892578126,0.0007363860495388508,0.0009932918474078178,-0.00012442516162991524
1772789559136205000,9.007205078125,0.0006983028724789619,0.001560012809932232,0.0017128896433860064
1772789559146271000,9.01727099609375,0.002000836655497551,-0.003408709540963173,0.002100446028634906
1772789559156337000,9.0273369140625,0.001845574239268899,0.0013383757323026657,-0.0005009296000935137
1772789559166403000,9.037403076171875,0.0018176166340708733,-0.0014430005103349686,0.0001555766211822629
1772789559176469000,9.047468994140624,0.0007350416854023933,-0.0011684279888868332,0.0035130237229168415
1772789559186535000,9.057534912109375,-0.0001745049376040697,-0.0003326116129755974,-0.0007291429210454226
1772789559196600800,9.067600830078124,0.0002878198865801096,0.0015766080468893051,-0.0005861311801709235
1772789559206667000,9.0776669921875,0.0008458509109914303,0.00026468001306056976,0.0014339308254420757
1772789559216732000,9.08773193359375,-0.00036375666968524456,-0.0006719538941979408,-0.0020260477904230356
1772789559226798000,9.097798095703125,-0.0003697879146784544,-0.0007799034938216209,-0.000672573980409652
1772789559236864000,9.107864013671875,0.0007817628793418407,0.0009210575371980667,0.00032797566382214427
1772789559246930000,9.117929931640624,0.0008031995967030525,0.0011025350540876389,-0.00033877603709697723
1772789559256995800,9.127995849609375,-0.0014269312378019094,0.0010109217837452888,0.001468178816139698
1772789559267062000,9.13806201171875,-0.001546443672850728,-0.0013890014961361885,-0.0031893402338027954
1772789559277128000,9.1481279296875,-0.0028098474722355604,0.001394800841808319,-0.000816729967482388
1772789559287194000,9.158194091796876,-0.0010825940407812595,0.001461041159927845,0.003051505424082279
1772789559297259000,9.168259033203125,0.0011296940501779318,-0.0009491192176938057,-0.0003341713163536042
1772789559307325000,9.178324951171875,-0.0002685182262212038,0.0008851382881402969,0.0035476668272167444
1772789559317390800,9.188390869140624,-0.001597702270373702,-0.0005905190482735634,0.001449895091354847
1772789559327457000,9.19845703125,0.00041956501081585884,-0.0006812084466218948,0.00035229040076956153
1772789559337523000,9.20852294921875,0.0028616837225854397,-0.0010133041068911552,-0.0006546508520841599
1772789559347593000,9.218593017578126,-0.00014827633276581764,0.0016399510204792023,0.0005771201686002314
1772789559357659100,9.2286591796875,-0.0008047453593462706,0.001305723562836647,-0.0006404771120287478
1772789559367725000,9.23872509765625,0.0016011407133191824,0.002750246785581112,-0.00014549004845321178
1772789559377790000,9.2487900390625,0.00030790967866778374,-0.0038171084597706795,-0.002571629825979471
1772789559387856100,9.258856201171875,0.0018202794017270207,0.00013904646039009094,0.0004950210568495095
1772789559397922000,9.268922119140624,0.0010913722217082977,-0.0027632666751742363,-0.0013894317671656609
1772789559407988000,9.278988037109375,0.0001228218898177147,-0.00017261039465665817,-0.0007314099930226803
1772789559418054100,9.28905419921875,-0.0014788033440709114,0.0011238157749176025,0.0003924440243281424
1772789559428120000,9.2991201171875,0.00030389451421797276,-0.000657394528388977,-0.002116224728524685
1772789559438186200,9.309186279296876,-0.0006364674773067236,0.0009594112634658813,-0.00012231606524437666
1772789559448252000,9.319251953125,0.00020835036411881447,0.0010575568303465843,-0.0030310582369565964
1772789559458317000,9.329317138671875,0.00011007953435182571,0.0008146762847900391,0.003977316431701183
1772789559468383000,9.339383056640624,0.0007024251390248537,-0.0010094111785292625,-0.000906776636838913
1772789559478449200,9.34944921875,0.0018385294824838638,-0.0018661506474018097,0.0005331946304067969
1772789559488515000,9.35951513671875,0.0018642125651240349,0.0010054558515548706,0.001635353546589613
1772789559498581200,9.369581298828125,0.0003246390260756016,-0.002049989067018032,-0.0008030366734601557
1772789559508647000,9.37964697265625,0.0008609120268374681,0.0006836522370576859,0.004073736723512411
1772789559518713000,9.389713134765625,-0.0004443032667040825,-0.0008852165192365646,-0.0029522147960960865
1772789559528778000,9.399778076171875,-0.00034767971374094486,0.0009033838286995888,0.0006900242296978831
1772789559538844200,9.40984423828125,0.0016598112415522337,0.00105997733771801,-0.00004420924233272672
1772789559548910000,9.41991015625,0.0004224511794745922,-0.00028702709823846817,-0.0010874081635847688
1772789559558976300,9.429976318359374,0.0027322107926011086,0.00020113028585910797,0.0022511305287480354
1772789559569042000,9.4400419921875,-0.0004950943402945995,0.0002748696133494377,0.0030398329254239798
1772789559579108000,9.450108154296874,-0.001134518999606371,0.001939346082508564,0.0019348873756825924
1772789559589174000,9.460174072265625,0.0026300582103431225,0.0010456638410687447,0.0026892221067100763
1772789559599240200,9.470240234375,-0.0019127617124468088,-0.00011520832777023315,0.0007957145571708679
1772789559609305000,9.48030517578125,0.0008821177762001753,0.0003206199035048485,-0.0008778547053225338
1772789559619371300,9.490371337890625,0.0001241820864379406,0.0007358072325587273,-0.0024121017195284367
1772789559629437000,9.50043701171875,-0.0007036165334284306,-0.0017819171771407127,0.002352527342736721
1772789559639503000,9.510503173828125,-0.00030520791187882423,-0.001488436944782734,0.00037299987161532044
1772789559649569000,9.520569091796874,-0.0016585667617619038,0.0016979938372969627,-0.0007229326292872429
1772789559659635000,9.530635009765625,0.0003390705678611994,-0.0022983457893133163,0.001951413694769144
1772789559669701000,9.540701171875,-0.0010316288098692894,-0.00030520837754011154,0.00004212616477161646
1772789559679766300,9.550766357421875,-0.0016193883493542671,-0.0010945694521069527,-0.0005858471849933267
1772789559689832000,9.56083203125,0.0016016256995499134,-0.0008879909291863441,0.0014222294557839632
1772789559699898000,9.570898193359374,0.0008708543609827757,0.0021623941138386726,-0.0008651595562696457
1772789559709964000,9.580964111328125,-0.000022954773157835007,-0.001692117191851139,-0.0007473145960830152
1772789559720030000,9.591030029296874,-0.0006021924782544374,0.001183297485113144,0.0010876033920794725
1772789559730096000,9.60109619140625,-0.0004656040109694004,0.0018761688843369484,0.0019589511211961508
1772789559740162000,9.611162109375,0.0008055225480347872,-0.0020533250644803047,0.0002899480750784278
1772789559750227000,9.62122705078125,0.00185430608689785,0.0003705983981490135,0.0018787657609209418
1772789559760293000,9.631293212890625,-0.000790745485574007,-0.00025338027626276016,0.0005075042136013508
1772789559770359000,9.641359130859374,0.00023213750682771206,0.0012920545414090157,0.0029398335609585047
1772789559780425000,9.651425048828125,0.0005008503794670105,0.001012156717479229,-0.00036328512942418456
1772789559790491100,9.6614912109375,0.0023125610314309597,0.0010367799550294876,0.0005563342128880322
1772789559800557000,9.67155712890625,0.00196981243789196,0.0012522293254733086,0.0013805825728923082
1772789559810623200,9.681623291015624,0.000952581875026226,-0.0008135661482810974,-0.001871306449174881
1772789559820689000,9.69168896484375,0.0007762806490063667,0.0015353420749306679,0.001433942699804902
1772789559830754000,9.701754150390625,0.00034845946356654167,-0.0018055131658911705,-0.0007103867246769369
1772789559840820000,9.711820068359375,0.0006909419316798449,-0.0009863246232271194,-0.00024033879162743688
1772789559850886100,9.72188623046875,0.0010705986060202122,0.001213432289659977,-0.000688013737089932
1772789559860952000,9.7319521484375,0.0010088132694363594,0.0011180909350514412,-0.0007308906060643494
1772789559871018200,9.742018310546875,-0.0008559387642890215,0.00034604407846927643,-0.0004750243097078055
1772789559881084000,9.752083984375,-0.002279398264363408,0.0018738992512226105,-0.0001378681045025587
1772789559891150000,9.762150146484375,-0.003201325424015522,-0.0009792326018214226,-0.0012397118844091892
1772789559901215000,9.772215087890626,0.001448287395760417,0.00021146703511476517,0.0015358345117419958
1772789559911281200,9.78228125,-0.0009286191780120134,-0.0002971068024635315,0.0018788063898682594
1772789559921347000,9.79234716796875,-0.001843947684392333,-0.00041082315146923065,0.0019509780686348677
1772789559931413200,9.802413330078124,0.000561762135475874,-0.001627451740205288,0.0010389044182375073
1772789559941479000,9.81247900390625,0.001383081078529358,-0.000858064740896225,-0.002836261410266161
1772789559951545000,9.822545166015624,0.001288419822230935,-0.000029338523745536804,0.0003222995437681675
1772789559961611000,9.832611083984375,-0.0000942933838814497,-0.0024962248280644417,0.004063774831593037
1772789559971676200,9.84267626953125,0.0017039570957422256,0.0031541232019662857,-0.0004654659715015441
1772789559981742000,9.8527421875,-0.00033868756145238876,-0.0007111886516213417,0.001244816230610013
1772789559991808300,9.862808349609375,0.0016035828739404678,0.00004229601472616196,0.0004996792995370924
1772789560001874000,9.8728740234375,-0.001754396827891469,-0.0007603801786899567,-0.004170972388237715
1772789560011940000,9.882940185546875,0.001708740834146738,-0.002787616103887558,0.002509982790797949
1772789560022006000,9.893006103515624,0.0009750397875905037,0.0008609145879745483,0.0031435484997928143
1772789560032072200,9.903072265625,0.00012609362602233887,0.0005714483559131622,-0.0012285256525501609
1772789560042137000,9.91313720703125,0.0017048155423253775,-0.0008291080594062805,-0.0014692754484713078
1772789560052203300,9.923203369140625,-0.0020225029438734055,0.0018174191936850548,-0.002606529975309968
1772789560062269000,9.93326904296875,0.00009284587576985359,-0.0006569232791662216,0.00021482293959707022
1772789560072335000,9.943335205078125,-0.0006766228470951319,0.00037697702646255493,0.0006467171479016542
1772789560082401000,9.953401123046875,0.0007686747703701258,-0.0003034602850675583,-0.0007855308358557522
1772789560092467000,9.963467041015624,0.0025594807229936123,0.0009649274870753288,0.0017868659924715757
1772789560102533000,9.973533203125,0.000006041722372174263,0.0007609296590089798,-0.0005705641815438867
1772789560112598000,9.983597900390626,0.00015309080481529236,-0.00011962838470935822,-0.001201291917823255
1772789560122664000,9.993663818359375,-0.0012120455503463745,-0.0008139144629240036,-0.0021424531005322933
1772789560132730000,10.003730224609376,-0.00040348595939576626,-0.001663300208747387,-0.002351798117160797
1772789560142796000,10.013796142578125,0.0007059869822114706,-0.0008507696911692619,0.0006724877166561782
1772789560152862000,10.023862060546875,0.0005888750310987234,-0.0006588343530893326,-0.0002388871507719159
1772789560162928000,10.03392822265625,0.002987051382660866,0.0007036393508315086,0.0008341004722751677
1772789560172994000,10.043994140625,-0.000572653254494071,0.00012028217315673828,0.001267856452614069
1772789560183059000,10.054058837890626,-0.0006719890516251326,0.0019682496786117554,-0.0007244543521665037
1772789560193125000,10.064125,0.00041428348049521446,-0.00200657919049263,0.0012975872959941626
1772789560203191000,10.07419091796875,0.00019803480245172977,0.0002587065100669861,-0.0004065693647135049
1772789560213257000,10.084257080078125,-0.00187776330858469,-0.0015026014298200607,-0.00228687422350049
1772789560223323100,10.0943232421875,0.0011979213450103998,0.0001432318240404129,0.0036570345982909203
1772789560233389000,10.10438916015625,0.0019346860935911536,0.001994607038795948,0.000004309054929763079
1772789560243455200,10.114455322265625,-0.00015003629960119724,0.0008094999939203262,0.0015143214259296656
1772789560253520100,10.12452001953125,0.0011903226841241121,0.001775342971086502,-0.0005819963407702744
1772789560263586000,10.1345859375,0.0014742156490683556,-0.0010460102930665016,0.0029309794772416353
1772789560273652000,10.14465185546875,0.0011431779712438583,0.0007018269971013069,-0.0002180514857172966
1772789560283718100,10.15471826171875,-0.0005236943252384663,-0.0007397420704364777,-0.0002071325434371829
1772789560293784000,10.1647841796875,0.0008210360538214445,-0.0008655395358800888,-0.0008011286263354123
1772789560303850200,10.174850341796875,0.0016032063867896795,0.0016452893614768982,-0.00008846668060868979
1772789560313915100,10.1849150390625,-0.0006979713216423988,0.00281642097979784,0.003962031565606594
1772789560323981000,10.19498095703125,-0.0010495083406567574,-0.00014847610145807266,0.00013480248162522912
1772789560334047000,10.205046875,0.0008288391400128603,0.0003395192325115204,0.00017230503726750612
1772789560344113200,10.215113037109376,-0.0008896989747881889,-0.0023175161331892014,-0.0022493074648082256
1772789560354175000,10.225175048828126,0.001083757495507598,0.002337976358830929,0.0012795861111953855
1772789560364241000,10.235240966796875,0.002554088830947876,0.0005840184167027473,0.0014614799292758107
1772789560374306800,10.245306884765625,0.00001747952774167061,-0.0017205169424414635,0.00003824214218184352
1772789560384371700,10.255371826171874,-0.0003074263222515583,0.00025927647948265076,0.0005058932583779097
1772789560394438000,10.26543798828125,-0.00029958877712488174,0.0002864385023713112,-0.0011824069079011679
1772789560404503800,10.27550390625,-0.0006623114459216595,0.00115276500582695,0.002194747794419527
1772789560414569700,10.28556982421875,-0.0010454815346747637,-0.001823054626584053,-0.004120832774788141
1772789560424636000,10.295635986328126,-0.0014287105295807123,-0.0015064049512147903,0.002967170439660549
1772789560434701800,10.305701904296875,-0.00008897297084331512,0.0028826743364334106,-0.0022563720121979713
1772789560444767700,10.315767822265625,-0.0011044361162930727,0.0000749044120311737,-0.0014409120194613934
1772789560454833000,10.3258330078125,-0.000812978483736515,0.0012844754382967949,-0.00044880647328682244
1772789560464898800,10.33589892578125,0.0008067560847848654,-0.00047640688717365265,0.0002516049426048994
1772789560474964700,10.34596484375,-0.00015550223179161549,0.0008834609761834145,0.00011779338819906116
1772789560485031000,10.356031005859375,0.0003763311542570591,0.003245951607823372,0.0009742659749463201
1772789560495096800,10.366096923828126,-0.0013088476844131947,-0.0022095628082752228,0.002262166468426585
1772789560505162800,10.376162841796875,0.0004363215994089842,-0.0009477566927671432,0.0007577467476949096
1772789560515228700,10.386228759765626,0.0001750132068991661,0.0015875734388828278,0.0010040858760476112
1772789560525293800,10.3962939453125,0.002512203296646476,-0.0003322996199131012,0.00042617996223270893
1772789560535359700,10.40635986328125,0.0016644112765789032,-0.0007705865427851677,0.0012200751807540655
1772789560545426000,10.416426025390624,-0.0013068777043372393,-0.00007070787250995636,0.0006016890401951969
1772789560555491800,10.426491943359375,-0.0012859355192631483,0.0005743736401200294,0.002544537652283907
1772789560565557800,10.436557861328126,-0.0011541091371327639,0.003981621935963631,-0.001852874062024057
1772789560575623700,10.446623779296875,0.0003325212746858597,0.0008601974695920944,0.0010966637637466192
1772789560585688800,10.456688720703125,0.001309102401137352,-0.0009294468909502029,-0.0011443862458691
1772789560595754800,10.466754638671874,0.00035982648842036724,-0.0007765274494886398,-0.000021984917111694813
1772789560605821000,10.476821044921875,0.000826678704470396,0.0011918144300580025,0.000292800716124475
1772789560615886800,10.486886962890624,-0.0010769551154226065,-0.0003858190029859543,0.001408256241120398
1772789560625952800,10.496952880859375,0.00024051079526543617,-0.0021355152130126953,-0.0007947106496430933
1772789560636018700,10.507018798828126,0.0017266296781599522,0.0031869085505604744,0.0012938480358570814
1772789560646083800,10.517083740234375,-0.001429482363164425,0.00016395468264818192,0.0007313883397728205
1772789560656149800,10.527149658203125,-0.0026187580078840256,-0.00005309842526912689,0.001432656543329358
1772789560666216000,10.5372158203125,0.0001663758885115385,-0.0003290018066763878,-0.00271468423306942
1772789560676281900,10.54728173828125,-0.0006371231283992529,-0.001873907633125782,-0.0001308429054915905
1772789560686347800,10.55734765625,0.000557837076485157,0.0007240055128931999,-0.00289573660120368
1772789560696413700,10.56741357421875,-0.0027013157960027456,0.0016511259600520134,-0.0005836106720380485
1772789560706479900,10.57747998046875,0.0002278950996696949,-0.0008189557120203972,0.0020470598246902227
1772789560716544800,10.587544677734375,-0.001208227826282382,0.0017738556489348412,0.0013874773867428303
1772789560726611000,10.59761083984375,-0.00011686421930789948,0.0006531979888677597,-0.0023814281448721886
1772789560736676600,10.607676513671874,-0.0032182838767766953,-0.0004557361826300621,-0.0019394357223063707
1772789560746742800,10.61774267578125,-0.00029067089781165123,-0.0021079611033201218,0.0016246726736426353
1772789560756808700,10.62780859375,0.0022835363633930683,-0.0011870553717017174,-0.001096806488931179
1772789560766875000,10.637875,0.0004592712502926588,-0.0013199467211961746,0.002137070056051016
1772789560776939800,10.647939697265626,-0.0006322183180600405,-0.0013530785217881203,-0.0012944983318448067
1772789560787006000,10.658005859375,0.0000013478565961122513,-0.0015227217227220535,-0.0008627998759038746
1772789560797071600,10.668071533203126,0.0014512822963297367,-0.0028346842154860497,0.0017794473096728325
1772789560807137800,10.6781376953125,-0.0014467693399637938,-0.0015715472400188446,0.0013504121452569962
1772789560817203700,10.68820361328125,0.0003988149110227823,0.0001634536311030388,-0.0015176987508311868
