time,seconds_elapsed,z,y,x
1772797636892211700,0.082211669921875,-1.2035959959030151,-0.5486956238746643,-0.80403071641922
1772797636902237700,0.09223779296875,-1.1869144439697266,-0.5594425201416016,-0.7195022106170654
1772797636912263700,0.102263671875,-1.152376413345337,-0.5593602061271667,-0.6418713331222534
1772797636922290700,0.112290771484375,-1.1027820110321045,-0.599536120891571,-0.48832520842552185
1772797636932316700,0.122316650390625,-1.0305030345916748,-0.6819130182266235,-0.2564144730567932
1772797636942342700,0.1323427734375,-0.9863256812095642,-0.7618741989135742,-0.03695269301533699
1772797636952369700,0.14236962890625,-0.9887102842330933,-0.746427059173584,0.10502628237009048
1772797636962395600,0.152395751953125,-1.0318318605422974,-0.5191265344619751,0.1936054229736328
1772797636972421600,0.162421630859375,-1.1192560195922852,-0.27718260884284973,0.1722298264503479
1772797636982448600,0.17244873046875,-1.2289133071899414,-0.1286269575357437,-0.107920341193676
1772797636992475000,0.182474853515625,-1.3089900016784668,-0.05403367429971695,-0.7966550588607788
1772797637002500900,0.1925009765625,-1.4734463691711426,-0.1926024705171585,-1.8778257369995117
1772797637012527600,0.202527587890625,-1.5854809284210205,-0.2968444526195526,-2.775222063064575
1772797637022553600,0.2125537109375,-1.5292099714279175,-0.5617727637290955,-2.8409881591796875
1772797637032580600,0.22258056640625,-1.2972835302352905,-0.48938754200935364,-1.5438631772994995
1772797637042606600,0.232606689453125,-1.01772940158844,-0.24750061333179474,0.5063958168029785
1772797637052632600,0.242632568359375,-0.8122044801712036,-0.22288954257965088,1.9135653972625732
1772797637062659800,0.252659912109375,-0.6832390427589417,-0.30018484592437744,2.333466053009033
1772797637072685800,0.262685791015625,-0.6733896136283875,-0.35924792289733887,2.301286458969116
1772797637082711800,0.2727119140625,-0.7689241170883179,-0.4146515130996704,2.0771324634552
1772797637092738600,0.282738525390625,-0.9288346767425537,-0.3364392817020416,1.6369612216949463
1772797637102764500,0.2927646484375,-1.1307382583618164,-0.09320371598005295,0.9478501677513123
1772797637112790500,0.30279052734375,-1.3335480690002441,0.3952122926712036,0.1642715036869049
1772797637122817800,0.31281787109375,-1.4540451765060425,0.8772569894790649,-0.4055778682231903
1772797637132843800,0.32284375,-1.3865809440612793,1.0655491352081299,-0.590487539768219
1772797637142869800,0.332869873046875,-1.1673476696014404,1.0327086448669434,-0.531834065914154
1772797637152896800,0.342896728515625,-0.8760353922843933,0.907223641872406,-0.40093597769737244
1772797637162922500,0.352922607421875,-0.5786306262016296,0.7925775051116943,-0.1839946061372757
1772797637172948500,0.362948486328125,-0.2993563413619995,0.5876368880271912,0.16639883816242218
1772797637182975700,0.372975830078125,-0.18912385404109955,0.3507777154445648,0.4798622131347656
1772797637193001700,0.383001708984375,-0.2274523377418518,0.1767856925725937,0.6433911919593811
1772797637203027700,0.39302783203125,-0.37559518218040466,0.2884794771671295,0.5413790941238403
1772797637213054700,0.4030546875,-0.48964744806289673,0.3675878643989563,0.31612253189086914
1772797637223080700,0.413080810546875,-0.5808514356613159,0.4296685457229614,0.14229562878608704
1772797637233106700,0.423106689453125,-0.6615079045295715,0.3999708294868469,0.08679614961147308
1772797637243133700,0.4331337890625,-0.7468241453170776,0.2821187674999237,0.11254066228866577
1772797637253159700,0.44315966796875,-0.8260366916656494,0.13819275796413422,0.1045658215880394
1772797637263185700,0.453185546875,-0.8496509194374084,0.017064204439520836,0.06324900686740875
1772797637273212700,0.463212646484375,-0.8710606098175049,-0.06420588493347168,-0.026386333629488945
1772797637283238700,0.47323876953125,-0.918720543384552,-0.11790799349546432,-0.09260716289281845
1772797637293264600,0.4832646484375,-1.0053523778915405,-0.1320784091949463,-0.14270521700382233
1772797637303292000,0.4932919921875,-1.1118061542510986,-0.08740627765655518,-0.25783953070640564
1772797637313318000,0.50331787109375,-1.2337511777877808,0.022242987528443336,-0.4683339297771454
1772797637323344000,0.51334375,-1.380399465560913,0.2277119904756546,-0.7961762547492981
1772797637333370600,0.52337060546875,-1.4896034002304077,0.3442753553390503,-1.141228437423706
1772797637343396600,0.533396728515625,-1.6003882884979248,0.29111865162849426,-1.4310972690582275
1772797637353422600,0.543422607421875,-1.6800436973571777,0.3130258321762085,-1.5954725742340088
1772797637363449600,0.55344970703125,-1.7666840553283691,0.18592485785484314,-1.6194487810134888
1772797637373475800,0.563475830078125,-1.7926884889602661,0.04404229298233986,-1.486118197441101
1772797637383501800,0.573501708984375,-1.7722485065460205,-0.17845124006271362,-1.1971583366394043
1772797637393528600,0.583528564453125,-1.737848162651062,-0.3856150805950165,-0.9128245711326599
1772797637403554600,0.593554443359375,-1.74613356590271,-0.5517579913139343,-0.7210586071014404
1772797637413580500,0.60358056640625,-1.785131812095642,-0.6277108192443848,-0.6601728796958923
1772797637423607600,0.613607666015625,-1.7877438068389893,-0.68089759349823,-0.6710902452468872
1772797637433633500,0.623633544921875,-1.7602746486663818,-0.652511477470398,-0.6814134120941162
1772797637443659800,0.63365966796875,-1.7052319049835205,-0.5614886283874512,-0.6102859973907471
1772797637453686800,0.643686767578125,-1.6066988706588745,-0.3863154947757721,-0.4534023702144623
1772797637463712800,0.653712646484375,-1.488376259803772,-0.1988486498594284,-0.26128432154655457
1772797637473738800,0.66373876953125,-1.3780308961868286,-0.10223369300365448,-0.10673230141401291
1772797637483765500,0.673765625,-1.3087342977523804,-0.052558284252882004,0.0665004625916481
1772797637493791500,0.68379150390625,-1.188605785369873,0.06928160041570663,0.27108848094940186
1772797637503817700,0.693817626953125,-0.9248418211936951,0.1097339540719986,0.3806826174259186
1772797637513844700,0.7038447265625,-0.5304715633392334,-0.21991372108459473,0.29232800006866455
1772797637523870700,0.71387060546875,-0.15910176932811737,-0.9874681830406189,-0.13266482949256897
1772797637533897700,0.723897705078125,-0.01828659512102604,-2.262406349182129,-0.8390757441520691
1772797637543923700,0.733923828125,-0.16578204929828644,-3.4715845584869385,-1.4769617319107056
1772797637553949700,0.74394970703125,-0.3774165213108063,-4.338750839233398,-1.599922776222229
1772797637563976700,0.753976806640625,-0.49602946639060974,-3.9632229804992676,-0.6874803900718689
1772797637574002700,0.764002685546875,-0.3084563612937927,-2.613276481628418,0.6738263368606567
1772797637584028700,0.774028564453125,0.01678084395825863,-0.9248708486557007,1.6413383483886719
1772797637594055700,0.7840556640625,0.14437554776668549,0.07610408961772919,2.0033230781555176
1772797637604081700,0.79408154296875,-0.11092891544103622,0.5082376599311829,1.805035948753357
1772797637614107600,0.804107666015625,-0.5911450386047363,0.6136192083358765,1.2172845602035522
1772797637624134700,0.814134765625,-1.11178457736969,0.48312991857528687,0.5515041947364807
1772797637634160600,0.82416064453125,-1.541059970855713,0.3392829895019531,-0.03777667507529259
1772797637644186600,0.8341865234375,-1.8503259420394897,0.2029067724943161,-0.4039786458015442
1772797637654213600,0.844213623046875,-2.094790458679199,0.18261562287807465,-0.4861730933189392
1772797637664240000,0.854240234375,-2.185016393661499,0.24795201420783997,-0.39420217275619507
1772797637674266000,0.86426611328125,-2.095198631286621,0.30180034041404724,-0.24910622835159302
1772797637684293000,0.874293212890625,-1.9607528448104858,0.2422371357679367,-0.11724886298179626
1772797637694319000,0.884319091796875,-1.9018101692199707,0.0733644962310791,-0.026763970032334328
1772797637704345000,0.894344970703125,-1.9278333187103271,-0.15056900680065155,-0.025439312681555748
1772797637714372000,0.9043720703125,-1.9807708263397217,-0.3727538585662842,-0.08647923171520233
1772797637724398000,0.914398193359375,-2.0212106704711914,-0.43336021900177,-0.3096020519733429
1772797637734425000,0.924425048828125,-2.0205047130584717,-0.42031925916671753,-0.5813494324684143
1772797637744451000,0.934451171875,-2.0363950729370117,-0.3185628056526184,-0.8465022444725037
1772797637754477000,0.94447705078125,-1.9361604452133179,-0.1666555553674698,-1.0229926109313965
1772797637764504000,0.954504150390625,-1.766007661819458,-0.07409899681806564,-1.0774627923965454
1772797637774530000,0.964530029296875,-1.502191185951233,-0.1047850027680397,-1.0217819213867188
1772797637784556000,0.97455615234375,-1.2270543575286865,-0.2256150096654892,-0.9225943684577942
1772797637794583000,0.9845830078125,-0.9822015166282654,-0.42098212242126465,-0.8102118968963623
1772797637804609000,0.994609130859375,-0.802006185054779,-0.6367564797401428,-0.6970605850219727
1772797637814635000,1.004635009765625,-0.6948890089988708,-0.8056743741035461,-0.5980615615844727
1772797637824662000,1.014662109375,-0.6493556499481201,-0.9019346237182617,-0.5153805017471313
1772797637834688000,1.02468798828125,-0.6125129461288452,-0.9047098755836487,-0.43248990178108215
1772797637844714200,1.03471435546875,-0.6039391756057739,-0.7830401659011841,-0.3852326273918152
1772797637854741000,1.044740966796875,-0.6381109952926636,-0.5916228294372559,-0.37090882658958435
1772797637864767000,1.05476708984375,-0.7020284533500671,-0.3964616060256958,-0.3504645526409149
1772797637874793000,1.06479296875,-0.7906203269958496,-0.2341160923242569,-0.3500054180622101
1772797637884820000,1.074820068359375,-0.9150688052177429,-0.11409248411655426,-0.37456560134887695
1772797637894846000,1.084845947265625,-1.0491241216659546,0.01281406544148922,-0.43243691325187683
1772797637904872000,1.094871826171875,-1.1750683784484863,0.1206585094332695,-0.4726296067237854
1772797637914899200,1.104899169921875,-1.2793256044387817,0.21792221069335938,-0.46596530079841614
1772797637924925200,1.11492529296875,-1.3221033811569214,0.2814388573169708,-0.3944122791290283
1772797637934952000,1.124951904296875,-1.2814580202102661,0.29940614104270935,-0.24629366397857666
1772797637944978000,1.13497802734375,-1.203033208847046,0.25578489899635315,-0.05646194517612457
1772797637955004000,1.14500390625,-1.1421040296554565,0.17996443808078766,0.13247042894363403
1772797637965031200,1.15503125,-1.1273787021636963,0.12072481960058212,0.2897050380706787
1772797637975057200,1.16505712890625,-1.1652733087539673,0.10385129600763321,0.4535962641239166
1772797637985083100,1.175083251953125,-1.1852947473526,0.17004336416721344,0.6069309711456299
1772797637995110100,1.185110107421875,-1.1775797605514526,0.2719966173171997,0.7482196092605591
1772797638005136100,1.19513623046875,-1.091318130493164,0.3750785291194916,0.8678746819496155
1772797638015162000,1.205162109375,-0.9716023802757263,0.3876158893108368,0.9355064034461975
1772797638025189000,1.215189208984375,-0.8160026669502258,0.2911439538002014,0.8842877149581909
1772797638035215000,1.225215087890625,-0.6411781311035156,0.1108117327094078,0.7387305498123169
1772797638045242000,1.2352421875,-0.5181800127029419,-0.14390604197978973,0.6454490423202515
1772797638055268000,1.24526806640625,-0.3588492274284363,-0.5400134325027466,0.7753018736839294
1772797638065294000,1.255294189453125,-0.11875008791685104,-1.0670024156570435,1.1145528554916382
1772797638075320800,1.26532080078125,0.041978608816862106,-1.4956283569335938,1.4656203985214233
1772797638085347000,1.27534716796875,-0.027590882033109665,-1.5612667798995972,1.7298916578292847
1772797638095373000,1.285373046875,-0.25779664516448975,-1.2997208833694458,1.6681017875671387
1772797638105400000,1.295400146484375,-0.5659664869308472,-0.8467211723327637,1.1425535678863525
1772797638115426000,1.305426025390625,-0.9376220703125,-0.186961367726326,0.31553852558135986
1772797638125452000,1.3154521484375,-1.1978992223739624,0.23533369600772858,-0.46809184551239014
1772797638135479000,1.32547900390625,-1.41326105594635,0.24728462100028992,-0.9303559064865112
1772797638145505000,1.335505126953125,-1.628403663635254,0.03392814099788666,-1.116050362586975
1772797638155531300,1.34553125,-1.7776613235473633,-0.20716756582260132,-1.1335747241973877
1772797638165558000,1.35555810546875,-1.7813911437988281,-0.3978043496608734,-1.0380381345748901
1772797638175584000,1.365583984375,-1.613608717918396,-0.5264118909835815,-0.9186302423477173
1772797638185610000,1.37560986328125,-1.4291760921478271,-0.5793547034263611,-0.7146896123886108
1772797638195637000,1.385636962890625,-1.3210769891738892,-0.507116973400116,-0.4627905488014221
1772797638205663000,1.3956630859375,-1.2766096591949463,-0.4134083390235901,-0.2953765094280243
1772797638215690200,1.405690185546875,-1.2788076400756836,-0.3180088698863983,-0.21973715722560883
1772797638225716200,1.41571630859375,-1.2705377340316772,-0.22870054841041565,-0.198862224817276
1772797638235742200,1.4257421875,-1.2605342864990234,-0.08670320361852646,-0.16699723899364471
1772797638245769000,1.43576904296875,-1.243912696838379,0.07938457280397415,-0.17116215825080872
1772797638255795000,1.445794921875,-1.183762788772583,0.14166659116744995,-0.1735968291759491
1772797638265821000,1.455821044921875,-1.1188757419586182,0.1544167399406433,-0.23661494255065918
1772797638275848200,1.46584814453125,-1.0020710229873657,0.05349784716963768,-0.30137261748313904
1772797638285874200,1.475874267578125,-0.9192265272140503,-0.06054883077740669,-0.28756627440452576
1772797638295900200,1.485900146484375,-0.8293762803077698,-0.1558130383491516,-0.212031289935112
1772797638305927000,1.495927001953125,-0.7512023448944092,-0.2224450558423996,-0.11250470578670502
1772797638315953000,1.505952880859375,-0.6901832222938538,-0.2295817881822586,-0.06228601187467575
1772797638325979000,1.515978759765625,-0.6385762095451355,-0.23686634004116058,-0.0892752856016159
1772797638336006100,1.526006103515625,-0.6107512712478638,-0.25999030470848083,-0.24248240888118744
1772797638346032000,1.5360322265625,-0.5528181791305542,-0.3007315993309021,-0.4250330626964569
1772797638356059100,1.54605908203125,-0.4854798913002014,-0.33673301339149475,-0.5825691223144531
1772797638366085000,1.556085205078125,-0.4144509732723236,-0.3238864541053772,-0.6602271795272827
1772797638376111000,1.566111083984375,-0.3464711308479309,-0.30720415711402893,-0.6716998219490051
1772797638386137900,1.576137939453125,-0.2761210799217224,-0.29175862669944763,-0.6439829468727112
1772797638396163800,1.586163818359375,-0.19469784200191498,-0.3380267918109894,-0.5996572971343994
1772797638406190000,1.596190185546875,-0.17050142586231232,-0.43820077180862427,-0.5047364234924316
1772797638416217000,1.606217041015625,-0.20582640171051025,-0.5516884922981262,-0.38300517201423645
1772797638426243000,1.6162431640625,-0.24970437586307526,-0.6190270185470581,-0.28498193621635437
1772797638436269000,1.62626904296875,-0.2867864966392517,-0.6148034930229187,-0.2026069015264511
1772797638446296000,1.636296142578125,-0.28591325879096985,-0.5867713689804077,-0.12926743924617767
1772797638456322000,1.646322021484375,-0.30959221720695496,-0.5504242777824402,-0.05957597866654396
1772797638466349000,1.65634912109375,-0.37328624725341797,-0.4958920478820801,0.02369867078959942
1772797638476375000,1.666375,-0.4873124063014984,-0.37777259945869446,0.08590345829725266
1772797638486401000,1.676401123046875,-0.6632879376411438,-0.1871137022972107,0.10831315815448761
1772797638496428000,1.686427978515625,-0.8364815711975098,-0.0019883159548044205,0.0834387019276619
1772797638506454000,1.6964541015625,-0.9569488763809204,0.13212527334690094,0.06658461689949036
1772797638516480000,1.70647998046875,-1.0480729341506958,0.2101023644208908,0.1657112091779709
1772797638526507300,1.71650732421875,-1.07413911819458,0.26121455430984497,0.43252211809158325
1772797638536533000,1.726532958984375,-1.0092307329177856,0.36198803782463074,0.770033597946167
1772797638546559000,1.73655908203125,-0.9172656536102295,0.33179551362991333,1.093199610710144
1772797638556586000,1.7465859375,-0.8563146591186523,0.10438526421785355,1.3583450317382812
1772797638566612000,1.756612060546875,-0.8319960236549377,-0.3108486831188202,1.4433428049087524
1772797638576638000,1.766637939453125,-0.8052568435668945,-0.8228076100349426,1.3593653440475464
1772797638586665200,1.776665283203125,-0.6808720231056213,-1.2957946062088013,1.1616319417953491
1772797638596691200,1.786691162109375,-0.49578791856765747,-1.6147565841674805,0.8929960131645203
1772797638606718000,1.796718017578125,-0.3257823586463928,-1.6182559728622437,0.624423623085022
1772797638616744000,1.806743896484375,-0.14738598465919495,-1.4480246305465698,0.4410032331943512
1772797638626770000,1.81677001953125,-0.03544614091515541,-1.0637253522872925,0.3616330325603485
1772797638636797000,1.826796875,-0.017965950071811676,-0.5985441207885742,0.2168833166360855
1772797638646823200,1.8368232421875,0.022879216820001602,-0.043645747005939484,-0.037270672619342804
1772797638656849200,1.84684912109375,0.12852388620376587,0.4942464828491211,-0.2533438503742218
1772797638666875100,1.856875244140625,0.3598574995994568,0.7105447053909302,-0.3541783094406128
1772797638676901000,1.866901123046875,0.6180863976478577,0.513910174369812,-0.3083631694316864
1772797638686927000,1.876927001953125,0.7908850908279419,0.04170563444495201,-0.1646834909915924
1772797638696954000,1.8869541015625,0.8892635703086853,-0.39618781208992004,-0.046611178666353226
1772797638706980000,1.89697998046875,0.9260474443435669,-0.6603108048439026,-0.06172461807727814
1772797638717006000,1.907006103515625,0.8599607944488525,-0.6311827301979065,-0.12965252995491028
1772797638727032800,1.91703271484375,0.7602094411849976,-0.3630378544330597,-0.16219502687454224
1772797638737059000,1.92705908203125,0.6898490190505981,0.06524531543254852,-0.14831729233264923
1772797638747086000,1.937086181640625,0.693454921245575,0.48806342482566833,-0.14046630263328552
1772797638757112000,1.947112060546875,0.7816268801689148,0.7084293365478516,-0.11726830154657364
1772797638767138000,1.957137939453125,0.878232479095459,0.806346595287323,-0.04116048663854599
1772797638777165000,1.9671650390625,0.9562652111053467,0.7733377814292908,0.06876734644174576
1772797638787191000,1.97719091796875,0.949359118938446,0.7524705529212952,0.1710018366575241
1772797638797217000,1.987217041015625,0.9125813841819763,0.8065170049667358,0.21385103464126587
1772797638807244000,1.997244140625,0.8826733231544495,0.901983380317688,0.1753166913986206
1772797638817270000,2.00727001953125,0.8747764825820923,1.007563591003418,0.0534517727792263
1772797638827296000,2.0172958984375,0.9564716219902039,1.0625191926956177,-0.06000874191522598
1772797638837323000,2.027322998046875,1.1179507970809937,0.9923470616340637,-0.07310537248849869
1772797638847349000,2.037348876953125,1.3796417713165283,0.8048222064971924,-0.01997184380888939
1772797638857375000,2.047375,1.6220821142196655,0.5175784230232239,0.10087122023105621
1772797638867402000,2.057402099609375,1.758087396621704,0.15830548107624054,0.1744825839996338
1772797638877428000,2.067427978515625,1.7359291315078735,-0.22670717537403107,0.10280680656433105
1772797638887455000,2.077455078125,1.6216144561767578,-0.43927112221717834,-0.1762344241142273
1772797638897481000,2.08748095703125,1.451824426651001,-0.5275471806526184,-0.5418485999107361
1772797638907507000,2.0975068359375,1.1757807731628418,-0.6196920275688171,-0.988289475440979
1772797638917534200,2.1075341796875,0.9108378291130066,-0.686360239982605,-1.3472298383712769
1772797638927560200,2.117560302734375,0.6635830402374268,-0.7031669616699219,-1.5323045253753662
1772797638937586200,2.127586181640625,0.4841427206993103,-0.6906010508537292,-1.5598437786102295
1772797638947613000,2.137613037109375,0.39342451095581055,-0.7037054300308228,-1.546444058418274
1772797638957639000,2.147638916015625,0.3700430393218994,-0.7510377764701843,-1.4946775436401367
1772797638967665000,2.157664794921875,0.38628992438316345,-0.7627671360969543,-1.4111746549606323
1772797638977692200,2.167692138671875,0.4669722318649292,-0.7647863626480103,-1.2920315265655518
1772797638987718100,2.17771826171875,0.5549481511116028,-0.8104878067970276,-1.1187127828598022
1772797638997744000,2.187744140625,0.6457576751708984,-0.8440194129943848,-0.9045168161392212
1772797639007771100,2.197771240234375,0.6900993585586548,-0.8265727758407593,-0.7214194536209106
1772797639017797000,2.207797119140625,0.7480401396751404,-0.7175717353820801,-0.607451319694519
1772797639027823900,2.217823974609375,0.827115535736084,-0.48900723457336426,-0.542523205280304
1772797639037849900,2.227849853515625,0.9039463996887207,-0.13061073422431946,-0.45083189010620117
1772797639047876000,2.2378759765625,1.009871482849121,0.3167417347431183,-0.16937145590782166
1772797639057903000,2.247903076171875,1.2161167860031128,0.6859583854675293,0.20843683183193207
1772797639067929000,2.25792919921875,1.4508345127105713,0.927763044834137,0.5885980129241943
1772797639077955000,2.267955078125,1.5659914016723633,0.981263279914856,0.9353005886077881
1772797639087981800,2.27798193359375,1.6296555995941162,0.9963298439979553,1.2253291606903076
1772797639098007800,2.2880078125,1.7883424758911133,1.067652702331543,1.3739564418792725
1772797639108034000,2.298033935546875,2.1490578651428223,0.9110202789306641,1.3371145725250244
1772797639118061000,2.30806103515625,2.7801241874694824,0.6228752732276917,1.487187385559082
1772797639128087000,2.318087158203125,3.4909088611602783,0.18551979959011078,2.1919491291046143
1772797639138113000,2.328113037109375,3.8314101696014404,-0.27765557169914246,3.268923044204712
1772797639148140000,2.33814013671875,3.594810962677002,-0.5019201040267944,4.606420040130615
1772797639158166000,2.348166015625,2.82055926322937,0.24725399911403656,5.9562225341796875
1772797639168192000,2.35819189453125,1.8793104887008667,2.5416412353515625,7.179104804992676
1772797639178219000,2.368218994140625,1.359107494354248,5.029847145080566,8.695182800292969
1772797639188245000,2.378244873046875,1.1988145112991333,6.250664710998535,10.357369422912598
1772797639198272000,2.38827197265625,1.2395262718200684,6.194915294647217,11.503791809082031
1772797639208298000,2.398298095703125,1.3281093835830688,5.132816791534424,11.635319709777832
1772797639218324000,2.408323974609375,1.0641217231750488,4.28602933883667,11.105019569396973
1772797639228351200,2.418351318359375,0.4657578468322754,4.418694019317627,10.091383934020996
1772797639238377200,2.428377197265625,0.05041923001408577,5.051454067230225,8.319375991821289
1772797639248403200,2.4384033203125,-0.059369850903749466,5.3878583908081055,6.274763107299805
1772797639258430000,2.448429931640625,0.09009074419736862,4.806777000427246,4.5290398597717285
1772797639268456000,2.4584560546875,0.6093395352363586,4.025009632110596,2.837307929992676
1772797639278482000,2.46848193359375,1.3204480409622192,2.879093885421753,1.2932331562042236
1772797639288509200,2.47850927734375,2.0084238052368164,1.1566236019134521,0.6375131011009216
1772797639298535200,2.48853515625,2.736076831817627,-0.4703155755996704,0.5298100709915161
1772797639308561200,2.49856103515625,3.53466796875,-1.491664171218872,0.4535272717475891
1772797639318588000,2.508587890625,4.1563801765441895,-1.7372140884399414,0.6187891960144043
1772797639328614000,2.51861376953125,4.380956649780273,-1.3239455223083496,0.8163914680480957
1772797639338641000,2.528640869140625,4.27357292175293,-0.5698866248130798,0.5375734567642212
1772797639348667000,2.5386669921875,3.917120933532715,0.16112656891345978,-0.21534693241119385
1772797639358693000,2.548693115234375,3.2620558738708496,0.7418229579925537,-1.0203981399536133
1772797639368720100,2.55872021484375,2.4327638149261475,1.2040166854858398,-1.7464653253555298
1772797639378746000,2.56874609375,1.6953781843185425,1.376747488975525,-2.5074210166931152
1772797639388772000,2.578772216796875,1.1255555152893066,1.1618345975875854,-3.220628499984741
1772797639398798800,2.588798828125,0.764139711856842,0.6598280072212219,-3.689345121383667
1772797639408824800,2.598824951171875,0.5685625076293945,0.07011117786169052,-3.968878746032715
1772797639418850800,2.608850830078125,0.41766753792762756,-0.525336503982544,-4.1629252433776855
1772797639428878000,2.618878173828125,0.23772494494915009,-0.7706839442253113,-4.408058166503906
1772797639438904000,2.628904052734375,0.05407362058758736,-0.5949861407279968,-4.7320685386657715
1772797639448930000,2.638929931640625,-0.1360662281513214,-0.1289830207824707,-5.051273345947266
1772797639458957000,2.64895703125,-0.20958279073238373,0.429436594247818,-5.292191982269287
1772797639468983000,2.658983154296875,-0.14696334302425385,0.744118332862854,-5.428709983825684
1772797639479009000,2.669009033203125,-0.0048424256965518,0.4013996124267578,-5.293192386627197
1772797639489036000,2.6790361328125,0.20684665441513062,-0.38200727105140686,-4.848480701446533
1772797639499062000,2.68906201171875,0.5716198086738586,-1.0879462957382202,-4.296228408813477
1772797639509088000,2.699087890625,0.9383461475372314,-1.7085837125778198,-3.7313318252563477
1772797639519115000,2.709114990234375,1.290956974029541,-2.2333452701568604,-3.005899429321289
1772797639529141000,2.71914111328125,1.6927685737609863,-2.4028244018554688,-1.9402211904525757
1772797639539168000,2.72916796875,2.0797364711761475,-1.8905655145645142,-0.7286416888237
1772797639549194000,2.739194091796875,2.5073444843292236,-0.8646889925003052,0.09220023453235626
1772797639559220000,2.749219970703125,2.8195300102233887,-0.045157358050346375,0.5284981727600098
1772797639569247000,2.7592470703125,2.8977997303009033,0.21839411556720734,0.8107312321662903
1772797639579273000,2.76927294921875,2.878347158432007,0.1576724499464035,1.0757290124893188
1772797639589299000,2.779298828125,2.869682788848877,0.24001313745975494,1.306296467781067
1772797639599326200,2.789326171875,2.766782522201538,0.556872546672821,1.3644167184829712
1772797639609352200,2.799352294921875,2.457700490951538,0.9915526509284973,1.1644644737243652
1772797639619378200,2.809378173828125,2.0083227157592773,1.4497652053833008,0.6899318099021912
1772797639629405000,2.819405029296875,1.5921663045883179,1.8203771114349365,0.0807502418756485
1772797639639431000,2.829430908203125,1.2973620891571045,1.968970537185669,-0.4761689305305481
1772797639649457000,2.839456787109375,1.0776073932647705,1.8688349723815918,-0.8696685433387756
1772797639659484700,2.849484619140625,0.9186491370201111,1.6117544174194336,-1.1726540327072144
1772797639669510700,2.8595107421875,0.8726491928100586,1.152376651763916,-1.3790793418884277
1772797639679536600,2.86953662109375,0.9214252233505249,0.5894209146499634,-1.4270660877227783
1772797639689563400,2.8795634765625,1.0234626531600952,0.15464283525943756,-1.327195644378662
1772797639699589400,2.88958935546875,1.2260000705718994,0.009094428271055222,-1.0954118967056274
1772797639709615400,2.899615478515625,1.4534188508987427,0.1485854834318161,-0.9058420062065125
1772797639719642400,2.909642333984375,1.596993327140808,0.3538009524345398,-0.8999995589256287
1772797639729668600,2.919668701171875,1.6278295516967773,0.5583455562591553,-1.0230437517166138
1772797639739695600,2.929695556640625,1.6218578815460205,0.7181354761123657,-1.0679912567138672
1772797639749721600,2.9397216796875,1.7221059799194336,0.6787148714065552,-1.0404105186462402
1772797639759747600,2.94974755859375,1.8728166818618774,0.6373685002326965,-0.7991856336593628
1772797639769774300,2.9597744140625,2.194754123687744,0.9685913920402527,-0.1205674260854721
1772797639779800300,2.96980029296875,2.786407470703125,1.319291114807129,0.6015644073486328
1772797639789826600,2.97982666015625,3.3131330013275146,1.2059507369995117,1.3933786153793335
1772797639799853600,2.989853515625,3.4072508811950684,0.7697243690490723,3.0891175270080566
1772797639809879600,2.999879638671875,3.2484588623046875,0.4372343122959137,5.09090518951416
1772797639819905500,3.009905517578125,3.40240216255188,0.7102432250976562,6.470059871673584
1772797639829932500,3.0199326171875,3.3416194915771484,1.2027647495269775,7.747950553894043
1772797639839958500,3.02995849609375,2.3665246963500977,2.4214985370635986,8.736964225769043
1772797639849984500,3.039984619140625,1.016751766204834,4.5651535987854,8.05969524383545
1772797639860011500,3.050011474609375,-0.02143205516040325,6.450789928436279,6.141035079956055
1772797639870037500,3.06003759765625,-0.439895898103714,6.89249324798584,4.467913627624512
1772797639880063500,3.0700634765625,-0.45364364981651306,6.123001575469971,3.737677574157715
1772797639890090500,3.080090576171875,-0.22121387720108032,4.8636016845703125,3.349396228790283
1772797639900116500,3.090116455078125,-0.014249509200453758,3.7231717109680176,2.6209704875946045
1772797639910142500,3.100142578125,0.06259386986494064,2.849058151245117,1.6810996532440186
1772797639920169500,3.11016943359375,0.21420656144618988,2.2306041717529297,0.9384803771972656
1772797639930195500,3.120195556640625,0.4838481545448303,1.773261308670044,0.422152578830719
1772797639940221400,3.130221435546875,0.8561780452728271,1.3709758520126343,0.1356630176305771
1772797639950248400,3.14024853515625,1.290748953819275,1.0099987983703613,0.05231034383177757
1772797639960274400,3.1502744140625,1.7679293155670166,0.6724263429641724,0.18001477420330048
1772797639970301700,3.1603017578125,2.2209882736206055,0.3483223021030426,0.4005868434906006
1772797639980327700,3.17032763671875,2.51613187789917,0.05735596641898155,0.5881963968276978
1772797639990353700,3.180353759765625,2.6312403678894043,-0.12613795697689056,0.6478594541549683
1772797640000379600,3.190379638671875,2.5336649417877197,-0.11286742985248566,0.5165839791297913
1772797640010406400,3.200406494140625,2.233121395111084,0.11001012474298477,0.15825195610523224
1772797640020432400,3.210432373046875,1.8592281341552734,0.43152156472206116,-0.3974512219429016
1772797640030459400,3.22045947265625,1.5021700859069824,0.6910445094108582,-0.9608405232429504
1772797640040485600,3.230485595703125,1.2169737815856934,0.780414342880249,-1.3819278478622437
1772797640050511600,3.24051171875,1.0366215705871582,0.6605529189109802,-1.6160660982131958
1772797640060538600,3.25053857421875,0.9378902316093445,0.43249550461769104,-1.7137244939804077
1772797640070564600,3.260564697265625,0.9111534357070923,0.1910032480955124,-1.7900967597961426
1772797640080590600,3.270590576171875,0.8605149984359741,-0.058041997253894806,-1.9136489629745483
1772797640090617300,3.280617431640625,0.7649280428886414,-0.3743230104446411,-2.092616558074951
1772797640100643600,3.2906435546875,0.6112892031669617,-0.7240219116210938,-2.294724941253662
1772797640110669600,3.300669677734375,0.45715928077697754,-1.0468534231185913,-2.497084856033325
1772797640120696600,3.310696533203125,0.2972881495952606,-1.2613461017608643,-2.662357807159424
1772797640130722600,3.32072265625,0.1439393311738968,-1.280145287513733,-2.8099212646484375
1772797640140748500,3.33074853515625,0.016531039029359818,-1.0734504461288452,-2.974736213684082
1772797640150775600,3.340775634765625,-0.1008475199341774,-0.7622190713882446,-3.1663506031036377
1772797640160801500,3.350801513671875,-0.1785668134689331,-0.48089364171028137,-3.3446271419525146
1772797640170827500,3.36082763671875,-0.20981448888778687,-0.3538789749145508,-3.4068381786346436
1772797640180854500,3.3708544921875,-0.1348257213830948,-0.4074591100215912,-3.330327033996582
1772797640190880500,3.380880615234375,0.05025677755475044,-0.5983478426933289,-3.131260395050049
1772797640200906500,3.390906494140625,0.28332972526550293,-0.8348663449287415,-2.801051616668701
1772797640210933500,3.40093359375,0.5073782801628113,-1.0305269956588745,-2.384678840637207
1772797640220959500,3.41095947265625,0.7329400181770325,-1.1220608949661255,-1.9481569528579712
1772797640230985500,3.4209853515625,0.9288530349731445,-1.0213872194290161,-1.5319557189941406
1772797640241012500,3.431012451171875,1.0479850769042969,-0.7078836560249329,-1.198259711265564
1772797640251038500,3.44103857421875,1.0702879428863525,-0.21334956586360931,-0.9583568572998047
1772797640261064400,3.451064453125,1.092052936553955,0.297599732875824,-0.7650313377380371
1772797640271091500,3.461091552734375,1.113816738128662,0.5920500159263611,-0.5274076461791992
1772797640281117400,3.471117431640625,1.2293561697006226,0.642720103263855,-0.18815632164478302
1772797640291143400,3.481143310546875,1.3987635374069214,0.6337825059890747,0.21799038350582123
1772797640301170700,3.491170654296875,1.5854631662368774,0.7306573987007141,0.6755086779594421
1772797640311196700,3.50119677734375,1.7804291248321533,0.9457058310508728,1.0588427782058716
1772797640321222700,3.51122265625,2.011866569519043,1.1619893312454224,1.5288249254226685
1772797640331249400,3.52124951171875,2.274400234222412,1.1815776824951172,1.9859815835952759
1772797640341275400,3.531275390625,2.659844398498535,0.7723481059074402,2.1101865768432617
1772797640351302700,3.541302734375,3.025554656982422,-0.06274780631065369,2.172717571258545
1772797640361328600,3.55132861328125,3.2791740894317627,-1.2672619819641113,2.483668088912964
1772797640371354600,3.561354736328125,3.337594509124756,-2.1752068996429443,3.1557347774505615
1772797640381381600,3.571381591796875,3.058886766433716,-2.165440082550049,4.107537746429443
1772797640391407600,3.58140771484375,2.1757757663726807,-0.8840858340263367,4.4485344886779785
1772797640401433300,3.591433349609375,0.9296642541885376,1.4745787382125854,3.5597150325775146
1772797640411460400,3.60146044921875,-0.26929351687431335,4.067821979522705,2.11665678024292
1772797640421486600,3.611486572265625,-0.9541847705841064,5.951371192932129,0.9180129170417786
1772797640431512600,3.6215126953125,-0.938454270362854,6.384151458740234,0.29303106665611267
1772797640441539600,3.63153955078125,-0.41226691007614136,5.171926021575928,0.1893041431903839
1772797640451565600,3.641565673828125,0.28175976872444153,3.191038131713867,0.5355744957923889
1772797640461591600,3.651591552734375,0.9160078167915344,1.5604174137115479,0.9549009203910828
1772797640471618300,3.661618408203125,1.3422003984451294,0.919249951839447,1.097314476966858
1772797640481644500,3.67164453125,1.514063835144043,0.9324848055839539,1.00538170337677
1772797640491670500,3.68167041015625,1.5388226509094238,1.2490416765213013,0.786470890045166
1772797640501697500,3.691697509765625,1.4837743043899536,1.665810465812683,0.6093664169311523
1772797640511723500,3.7017236328125,1.3923349380493164,1.9941092729568481,0.4686463177204132
1772797640521749500,3.71174951171875,1.4199391603469849,2.085635185241699,0.28310173749923706
1772797640531776500,3.721776611328125,1.6228488683700562,1.952514410018921,0.11637800931930542
1772797640541802500,3.731802490234375,1.937569260597229,1.6282912492752075,0.1300264447927475
1772797640551828700,3.741828857421875,2.188544750213623,1.2264399528503418,0.3343534767627716
1772797640561855500,3.75185546875,2.4796483516693115,0.8296028971672058,0.5093148946762085
1772797640571881500,3.761881591796875,2.7358546257019043,0.33445388078689575,0.7028060555458069
1772797640581907500,3.771907470703125,2.782413959503174,-0.4103260040283203,1.0150628089904785
1772797640591934500,3.7819345703125,2.636326789855957,-0.973347008228302,1.0746928453445435
1772797640601960400,3.79196044921875,2.3749210834503174,-1.004417061805725,0.668938934803009
1772797640611986400,3.801986328125,1.688301920890808,-0.6309406757354736,-0.20812976360321045
1772797640622013700,3.812013671875,0.9908863306045532,0.20105987787246704,-1.1963870525360107
1772797640632039400,3.822039306640625,0.3876135051250458,0.9850143194198608,-1.9338741302490234
1772797640642065400,3.8320654296875,-0.03839799016714096,1.5219190120697021,-2.1398046016693115
1772797640652092400,3.842092529296875,-0.20314939320087433,1.5435601472854614,-1.9290015697479248
1772797640662119200,3.852119140625,-0.16916559636592865,1.023396611213684,-1.46736478805542
1772797640672145200,3.862145263671875,-0.007607852108776569,0.19837647676467896,-1.0194724798202515
1772797640682172200,3.872172119140625,0.20542559027671814,-0.5562443137168884,-0.7554863095283508
1772797640692198100,3.8821982421875,0.37874624133110046,-1.0295895338058472,-0.6609459519386292
1772797640702224100,3.89222412109375,0.4411337375640869,-1.1529394388198853,-0.7624717950820923
1772797640712251100,3.902251220703125,0.37670281529426575,-1.0531989336013794,-1.017208218574524
1772797640722277000,3.912277099609375,0.24854376912117004,-0.8632820248603821,-1.301485538482666
1772797640732303000,3.92230322265625,0.12034399062395096,-0.6030901074409485,-1.4954466819763184
1772797640742330000,3.932330078125,0.028073713183403015,-0.35830435156822205,-1.5717198848724365
1772797640752356000,3.942356201171875,0.03441895917057991,-0.2079223096370697,-1.5645560026168823
1772797640762382000,3.952382080078125,0.15544845163822174,-0.23074746131896973,-1.4725637435913086
1772797640772409000,3.9624091796875,0.4326651394367218,-0.4120866358280182,-1.2442299127578735
1772797640782435000,3.97243505859375,0.7864434719085693,-0.7383355498313904,-0.9270445108413696
1772797640792461000,3.9824609375,1.042745590209961,-1.0025893449783325,-0.6096343398094177
1772797640802488000,3.992488037109375,1.2043431997299194,-0.9714447259902954,-0.3713706135749817
1772797640812514000,4.00251416015625,1.310101866722107,-0.6290743350982666,-0.27398255467414856
1772797640822540000,4.0125400390625,1.3752126693725586,-0.08822200447320938,-0.34660908579826355
1772797640832567300,4.0225673828125,1.3731250762939453,0.4929327368736267,-0.45639869570732117
1772797640842593300,4.03259326171875,1.1572721004486084,1.0669372081756592,-0.5740031003952026
1772797640852619300,4.042619384765625,0.8480697870254517,1.5979032516479492,-0.6048368811607361
1772797640862646000,4.05264599609375,0.6464778184890747,2.1917264461517334,-0.5362977981567383
1772797640872672000,4.062672119140625,0.9762594699859619,2.4790945053100586,-0.5276970863342285
1772797640882698000,4.072697998046875,1.7487149238586426,1.8580166101455688,-0.4690636098384857
1772797640892725200,4.082725341796875,2.639455795288086,0.02141421101987362,0.12702132761478424
1772797640902751200,4.092751220703125,3.3081717491149902,-2.2176108360290527,1.144242286682129
1772797640912777200,4.102777099609375,3.301905632019043,-3.3104453086853027,2.5931906700134277
1772797640922804200,4.11280419921875,2.757770299911499,-1.8432270288467407,4.19894552230835
1772797640932830200,4.122830322265625,2.0501065254211426,1.5147171020507812,4.5331315994262695
1772797640942856200,4.132856201171875,1.401755928993225,4.760401248931885,3.685115337371826
1772797640952883200,4.14288330078125,0.8971472978591919,6.457015037536621,2.5312445163726807
1772797640962909200,4.1529091796875,0.690009593963623,6.236091136932373,1.695202112197876
1772797640972935200,4.16293505859375,0.7682806849479675,4.727878093719482,1.513183355331421
1772797640982962200,4.172962158203125,0.8900198936462402,2.9184634685516357,1.6925584077835083
1772797640992988200,4.18298828125,0.990606963634491,1.5303854942321777,1.7501442432403564
1772797641003014100,4.19301416015625,1.0262731313705444,0.8454897403717041,1.4935194253921509
1772797641013041200,4.203041259765625,0.9610410928726196,0.6803886294364929,0.9814419746398926
1772797641023067100,4.213067138671875,0.8248273134231567,0.7314925789833069,0.466536283493042
1772797641033093000,4.223093017578125,0.6483817100524902,0.8913842439651489,0.024999093264341354
1772797641043120000,4.2331201171875,0.544460654258728,0.9542047381401062,-0.30006447434425354
1772797641053146000,4.24314599609375,0.510545015335083,0.9380140900611877,-0.44760867953300476
1772797641063172000,4.253172119140625,0.5472511053085327,0.8683881163597107,-0.5391196608543396
1772797641073199000,4.26319921875,0.6496592164039612,0.7125910520553589,-0.6033567190170288
1772797641083225300,4.273225341796875,0.7160670161247253,0.5341789722442627,-0.6366816759109497
1772797641093251300,4.283251220703125,0.7713318467140198,0.37663596868515015,-0.7020979523658752
1772797641103278000,4.293278076171875,0.7803956866264343,0.2628262937068939,-0.7702034711837769
1772797641113304000,4.303303955078125,0.7642718553543091,0.23518668115139008,-0.8907003402709961
1772797641123330000,4.313330078125,0.7250367999076843,0.24483105540275574,-1.051435112953186
1772797641133357000,4.323357177734375,0.6489273905754089,0.23902563750743866,-1.1893397569656372
1772797641143383000,4.333383056640625,0.5754803419113159,0.1949673593044281,-1.256693720817566
1772797641153409300,4.3434091796875,0.5500301122665405,0.16005517542362213,-1.260187029838562
1772797641163436300,4.353436279296875,0.5738915205001831,0.1524859517812729,-1.2498465776443481
1772797641173462300,4.363462158203125,0.6465238928794861,0.13777518272399902,-1.2569938898086548
1772797641183488300,4.37348828125,0.6930668950080872,0.09188837558031082,-1.276389479637146
1772797641193515000,4.383514892578125,0.7139031887054443,0.013159211724996567,-1.270414113998413
1772797641203541000,4.393541015625,0.6911262273788452,-0.05393194034695625,-1.266690731048584
1772797641213567200,4.403567138671875,0.6502291560173035,-0.0786745697259903,-1.2929795980453491
1772797641223594200,4.41359423828125,0.5612050294876099,-0.11788935214281082,-1.3574401140213013
1772797641233620200,4.4236201171875,0.3976365923881531,-0.17998868227005005,-1.437193512916565
1772797641243646200,4.433646240234375,0.2124060094356537,-0.2321951538324356,-1.517348289489746
1772797641253673000,4.4436728515625,0.005594768561422825,-0.1917068511247635,-1.579728603363037
1772797641263699000,4.453698974609375,-0.18022969365119934,-0.02131008170545101,-1.6097018718719482
1772797641273725000,4.463724853515625,-0.31673428416252136,0.26103824377059937,-1.5578469038009644
1772797641283752200,4.473752197265625,-0.3625369071960449,0.6218454241752625,-1.4579331874847412
1772797641293778200,4.483778076171875,-0.3021414875984192,0.9166699051856995,-1.3503190279006958
1772797641303804200,4.49380419921875,-0.15886741876602173,1.1035830974578857,-1.2381792068481445
1772797641313831200,4.5038310546875,0.006942594423890114,1.1220619678497314,-1.1138348579406738
1772797641323857200,4.513857177734375,0.14149321615695953,0.8215164542198181,-0.9172416925430298
1772797641333883100,4.523883056640625,0.25529247522354126,0.1890982836484909,-0.5722305178642273
1772797641343910100,4.53391015625,0.5691468119621277,-0.6282492876052856,0.01745089516043663
1772797641353936100,4.54393603515625,1.0683443546295166,-1.127481460571289,0.8115392327308655
1772797641363962000,4.553962158203125,1.3618042469024658,-1.6424553394317627,1.629359245300293
1772797641373989000,4.563989013671875,1.3719482421875,-0.9957271814346313,1.961034893989563
1772797641384015000,4.57401513671875,1.1404832601547241,0.5050631761550903,1.245919942855835
1772797641394041000,4.584041015625,0.5057622790336609,1.4602618217468262,0.13265632092952728
1772797641404068400,4.594068359375,0.3368997275829315,1.7059926986694336,-0.810089647769928
1772797641414094300,4.60409423828125,0.42228999733924866,1.1577861309051514,-0.8749586939811707
1772797641424120000,4.6141201171875,0.652292013168335,-0.15123745799064636,-0.21120518445968628
1772797641434146000,4.62414599609375,0.8885431885719299,-1.5082333087921143,0.6646621227264404
1772797641444173000,4.634173095703125,1.3831465244293213,-1.920759677886963,1.7221390008926392
1772797641454199000,4.644198974609375,1.811652660369873,-1.485546350479126,2.463531255722046
1772797641464225000,4.65422509765625,1.9804514646530151,-0.8065838813781738,2.8877434730529785
1772797641474252300,4.664252197265625,1.7510185241699219,0.05644037202000618,3.1060338020324707
1772797641484278300,4.6742783203125,1.3680388927459717,0.6872228384017944,2.8959438800811768
1772797641494304300,4.68430419921875,1.0094126462936401,0.8578335046768188,2.597585678100586
1772797641504331000,4.6943310546875,0.852824866771698,0.7040396332740784,2.3073010444641113
1772797641514357000,4.70435693359375,0.808222234249115,0.5189661979675293,2.0323963165283203
1772797641524383000,4.714383056640625,0.8701292872428894,0.5603716969490051,1.7588826417922974
1772797641534410200,4.72441015625,0.997927725315094,0.7978838682174683,1.4721144437789917
1772797641544436200,4.734436279296875,1.0596904754638672,1.007716417312622,1.0673168897628784
1772797641554462200,4.744462158203125,0.9946190118789673,1.373585820198059,0.5246837139129639
1772797641564489200,4.7544892578125,0.9135494828224182,1.7553166151046753,-0.14871278405189514
1772797641574515200,4.76451513671875,0.8276692032814026,1.9272385835647583,-0.6113134622573853
1772797641584541200,4.774541259765625,0.7558658123016357,1.8795232772827148,-0.866199254989624
1772797641594568200,4.784568115234375,0.6683383584022522,1.7653594017028809,-0.9681722521781921
1772797641604594200,4.79459423828125,0.6311616897583008,1.612462043762207,-0.9151716232299805
1772797641614620200,4.8046201171875,0.6460914015769958,1.3443772792816162,-0.7946553230285645
1772797641624647200,4.814647216796875,0.6587576866149902,1.0724616050720215,-0.6216883063316345
1772797641634673200,4.824673095703125,0.6804802417755127,0.8069154620170593,-0.5102981328964233
1772797641644699100,4.83469921875,0.748071551322937,0.4884021580219269,-0.4329594075679779
1772797641654726100,4.84472607421875,0.7933631539344788,0.15360021591186523,-0.4150666892528534
1772797641664751000,4.854751220703125,0.8100315928459167,-0.10098253935575485,-0.40723514556884766
1772797641674777000,4.864777099609375,0.7253395915031433,-0.2507113218307495,-0.47086286544799805
1772797641684803800,4.874803955078125,0.581142783164978,-0.3344149887561798,-0.5573695302009583
1772797641694829800,4.884829833984375,0.23230408132076263,-0.33922120928764343,-0.6937244534492493
1772797641704856000,4.89485595703125,0.01600240170955658,-0.17803578078746796,-0.9518747329711914
1772797641714883000,4.904883056640625,-0.21774537861347198,-0.022910641506314278,-1.2445436716079712
1772797641724909000,4.914908935546875,-0.32845643162727356,0.059908341616392136,-1.5246831178665161
1772797641734935000,4.92493505859375,-0.28982728719711304,0.06240984797477722,-1.7290318012237549
1772797641744962000,4.934962158203125,-0.1869959831237793,-0.004388090688735247,-1.8192700147628784
1772797641754988000,4.944988037109375,-0.07826337963342667,-0.13839782774448395,-1.8286774158477783
1772797641765014300,4.95501416015625,-0.028509140014648438,-0.31484848260879517,-1.7504068613052368
1772797641775040300,4.965040283203125,-0.011027351021766663,-0.36548104882240295,-1.7016425132751465
1772797641785067000,4.97506689453125,-0.0750739797949791,-0.2879638671875,-1.6738803386688232
1772797641795093000,4.985093017578125,-0.11503390967845917,-0.17563040554523468,-1.6213535070419312
1772797641805119000,4.995118896484375,-0.07425452023744583,-0.07259804010391235,-1.636094570159912
1772797641815146000,5.00514599609375,-0.006506368983536959,-0.029991455376148224,-1.5747082233428955
1772797641825172000,5.015171875,0.04549877345561981,-0.11557373404502869,-1.437793493270874
1772797641835198200,5.0251982421875,0.11304586380720139,-0.1352425068616867,-1.2756259441375732
1772797641845225200,5.03522509765625,0.11401551961898804,-0.036193955689668655,-1.1224161386489868
1772797641855251200,5.045251220703125,0.130737766623497,0.1227770522236824,-1.0229524374008179
1772797641865277000,5.05527685546875,0.2207760512828827,0.22627627849578857,-0.930229663848877
1772797641875304000,5.065303955078125,0.3485603928565979,0.25617745518684387,-0.8184903264045715
1772797641885330000,5.075329833984375,0.441319078207016,0.2464100420475006,-0.7545795440673828
1772797641895356200,5.085356201171875,0.501508355140686,0.14221519231796265,-0.7121135592460632
1772797641905383200,5.095383056640625,0.5702994465827942,-0.16364751756191254,-0.5762451887130737
1772797641915409200,5.1054091796875,0.7242839336395264,-0.6589467525482178,-0.33059602975845337
1772797641925435100,5.11543505859375,0.9163782596588135,-1.2350268363952637,-0.016746222972869873
1772797641935462000,5.1254619140625,1.110982060432434,-1.649906039237976,0.19983641803264618
1772797641945488000,5.13548779296875,1.2096096277236938,-1.7714064121246338,-0.08058192580938339
1772797641955513900,5.145513916015625,1.1962703466415405,-1.7837157249450684,-1.477021336555481
1772797641965541000,5.155541015625,0.8588699698448181,-1.4709831476211548,-3.4330897331237793
1772797641975567000,5.165567138671875,0.21354131400585175,-0.2790452241897583,-4.132166862487793
1772797641985593000,5.175593017578125,-0.2403569370508194,1.5457223653793335,-3.008814811706543
1772797641995619000,5.185619140625,-0.17523999512195587,2.657393455505371,-1.1810088157653809
1772797642005646000,5.19564599609375,0.10181930661201477,2.2596492767333984,1.2044934034347534
1772797642015672000,5.205672119140625,0.6916743516921997,0.7813626527786255,3.584106922149658
1772797642025698000,5.215697998046875,1.3239985704421997,-0.45374512672424316,5.018928527832031
1772797642035725000,5.22572509765625,1.6018450260162354,-0.8744359016418457,4.875255584716797
1772797642045751000,5.2357509765625,1.4438588619232178,-0.5003666877746582,3.687262773513794
1772797642055777000,5.245777099609375,1.161615252494812,0.27550002932548523,2.524188995361328
1772797642065804000,5.255803955078125,0.9712452292442322,0.7431787848472595,1.7419863939285278
1772797642075830000,5.265830078125,0.8860235810279846,0.5888768434524536,1.4410489797592163
1772797642085856000,5.27585595703125,0.8865149021148682,0.18099695444107056,1.3972519636154175
1772797642095883000,5.285883056640625,0.8977113962173462,-0.04463564604520798,1.3872613906860352
1772797642105909000,5.295908935546875,0.8689242005348206,0.04458397999405861,1.2791790962219238
1772797642115935000,5.30593505859375,0.8314087986946106,0.34728553891181946,1.0744144916534424
1772797642125962000,5.3159619140625,0.7652044892311096,0.645255982875824,0.8792024254798889
1772797642135988000,5.325988037109375,0.66856449842453,0.8735660910606384,0.7797141671180725
1772797642146014000,5.336013916015625,0.6020344495773315,0.9817906022071838,0.7062910795211792
1772797642156041200,5.346041259765625,0.5643371343612671,0.9022946953773499,0.6463462710380554
1772797642166067200,5.356067138671875,0.5109269022941589,0.7111798524856567,0.5279314517974854
1772797642176093200,5.36609326171875,0.4625000059604645,0.5205920338630676,0.46412932872772217
1772797642186119200,5.376119140625,0.394090861082077,0.2426142394542694,0.44448477029800415
1772797642196146000,5.38614599609375,0.33336037397384644,-0.0798085480928421,0.3787686228752136
1772797642206172000,5.396171875,0.2955842614173889,-0.3142862915992737,0.3351399004459381
1772797642216198000,5.406197998046875,0.28815269470214844,-0.4899763762950897,0.3220638036727905
1772797642226225200,5.41622509765625,0.29190748929977417,-0.5769765377044678,0.27860313653945923
1772797642236251100,5.426251220703125,0.30434897541999817,-0.6215705871582031,0.23310089111328125
1772797642246277000,5.436277099609375,0.28857266902923584,-0.6032837629318237,0.13057878613471985
1772797642256304000,5.44630419921875,0.2502228915691376,-0.5113474130630493,-0.05811017379164696
1772797642266330000,5.456330078125,0.19808059930801392,-0.30076196789741516,-0.27568379044532776
1772797642276356000,5.466356201171875,0.15146595239639282,-0.019994480535387993,-0.4992992877960205
1772797642286383000,5.476383056640625,0.11307542026042938,0.16835997998714447,-0.6787582635879517
1772797642296409000,5.4864091796875,0.09474941343069077,0.14751754701137543,-0.7764334082603455
1772797642306435000,5.49643505859375,0.0913458913564682,-0.004911934491246939,-0.8372594714164734
1772797642316462000,5.506462158203125,0.10921037942171097,-0.13978372514247894,-0.8911256790161133
1772797642326488000,5.516488037109375,0.1418181210756302,-0.19634315371513367,-0.9194275736808777
1772797642336514000,5.52651416015625,0.17784109711647034,-0.20723707973957062,-0.9010669589042664
1772797642346540000,5.5365400390625,0.2255452424287796,-0.218416228890419,-0.8190109729766846
1772797642356567000,5.546567138671875,0.2672463357448578,-0.24927107989788055,-0.7032172679901123
1772797642366593000,5.556593017578125,0.29663699865341187,-0.24209332466125488,-0.5934204459190369
1772797642376619000,5.566618896484375,0.31488123536109924,-0.2211395800113678,-0.5312455296516418
1772797642386646000,5.57664599609375,0.32687532901763916,-0.21200333535671234,-0.49165016412734985
1772797642396672000,5.586672119140625,0.3263413608074188,-0.20196615159511566,-0.4393584728240967
1772797642406698000,5.596697998046875,0.2934347987174988,-0.18829800188541412,-0.38291144371032715
1772797642416725200,5.606725341796875,0.27998557686805725,-0.1631585657596588,-0.3265746533870697
1772797642426751200,5.616751220703125,0.31427139043807983,-0.15023183822631836,-0.2178601622581482
1772797642436777200,5.626777099609375,0.40302574634552,-0.22317396104335785,-0.08113639801740646
1772797642446804000,5.636803955078125,0.5201268196105957,-0.33321258425712585,-0.013670538552105427
1772797642456830000,5.646829833984375,0.6378723382949829,-0.410837858915329,-0.09708846360445023
1772797642466856000,5.65685595703125,0.7241939306259155,-0.4763694703578949,-0.28511855006217957
1772797642476883200,5.66688330078125,0.7922504544258118,-0.9435696601867676,-0.7133801579475403
1772797642486909200,5.6769091796875,0.7778670191764832,-1.756437063217163,-1.5534669160842896
1772797642496935200,5.68693505859375,0.46998026967048645,-1.8954944610595703,-2.3797528743743896
1772797642506961200,5.696961181640625,-0.1511106938123703,-1.1253591775894165,-2.80968976020813
1772797642516988200,5.70698828125,-0.3446599245071411,0.49385499954223633,-2.3422374725341797
1772797642527014100,5.71701416015625,0.04144544526934624,1.5833102464675903,-0.448824405670166
1772797642537040000,5.727039794921875,0.31835800409317017,1.4887446165084839,1.3852094411849976
1772797642547067100,5.737067138671875,0.5380493402481079,0.9738460779190063,2.6797173023223877
1772797642557093000,5.747093017578125,0.8261018991470337,0.6361184120178223,3.186033248901367
1772797642567119000,5.757119140625,0.8752263188362122,0.53281569480896,3.0116677284240723
1772797642577146000,5.76714599609375,0.7089816927909851,0.5384847521781921,2.3833632469177246
1772797642587172000,5.777172119140625,0.4594839811325073,0.6439752578735352,1.6175305843353271
1772797642597198000,5.787197998046875,0.19874025881290436,0.7794278860092163,0.9958637952804565
1772797642607224000,5.79722412109375,0.014150173403322697,0.7994665503501892,0.6024816036224365
1772797642617251000,5.8072509765625,-0.028187695890665054,0.6463252305984497,0.42425113916397095
1772797642627277000,5.817277099609375,0.04818510636687279,0.4008786976337433,0.3651007413864136
1772797642637303000,5.827302978515625,0.1611635833978653,0.2268264889717102,0.3427211344242096
1772797642647330000,5.837330078125,0.2490234076976776,0.14117975533008575,0.32213810086250305
1772797642657356000,5.84735595703125,0.2919436991214752,0.11003009974956512,0.35372239351272583
1772797642667383000,5.857383056640625,0.2704314887523651,0.10376474261283875,0.4181719422340393
1772797642677410000,5.86741015625,0.2233625203371048,0.08859750628471375,0.47461605072021484
1772797642687436000,5.87743603515625,0.1496797651052475,0.03489087149500847,0.5087791085243225
1772797642697462000,5.8874619140625,0.05458734557032585,-0.07047896087169647,0.5160939693450928
1772797642707489000,5.897489013671875,-0.011685684323310852,-0.19936823844909668,0.5062639713287354
1772797642717515000,5.907514892578125,-0.05964495241641998,-0.2634012699127197,0.44122347235679626
1772797642727541000,5.917541015625,-0.09002576023340225,-0.30877622961997986,0.3259410858154297
1772797642737567000,5.92756689453125,-0.10183528810739517,-0.37995240092277527,0.22196941077709198
1772797642747594200,5.93759423828125,-0.1435806006193161,-0.4650939106941223,0.1428154706954956
1772797642757620200,5.9476201171875,-0.18430006504058838,-0.5417096018791199,0.057735200971364975
1772797642767646000,5.95764599609375,-0.23046889901161194,-0.5895652770996094,-0.06543413549661636
1772797642777673000,5.9676728515625,-0.27493807673454285,-0.5871961116790771,-0.21764257550239563
1772797642787699000,5.977698974609375,-0.3028586804866791,-0.5571979880332947,-0.37455442547798157
1772797642797725000,5.987724853515625,-0.3072214722633362,-0.5513483881950378,-0.5062309503555298
1772797642807752200,5.997752197265625,-0.2878163456916809,-0.5705649256706238,-0.5744273066520691
1772797642817778200,6.007778076171875,-0.2584315538406372,-0.5869588255882263,-0.6577973365783691
1772797642827804200,6.01780419921875,-0.23918035626411438,-0.6013572216033936,-0.7326699495315552
1772797642837831000,6.027830810546875,-0.21891982853412628,-0.6187955737113953,-0.7587844133377075
1772797642847857000,6.03785693359375,-0.21074765920639038,-0.6313539743423462,-0.7415462732315063
1772797642857883000,6.0478828125,-0.20991301536560059,-0.6083434820175171,-0.6684371829032898
1772797642867908900,6.057908935546875,-0.21331174671649933,-0.5626361966133118,-0.5859944820404053
1772797642877936000,6.06793603515625,-0.2231968641281128,-0.4911028742790222,-0.5168335437774658
1772797642887962000,6.077962158203125,-0.24184858798980713,-0.37800297141075134,-0.4273606538772583
1772797642897988000,6.087988037109375,-0.2396906167268753,-0.29000893235206604,-0.3059820234775543
1772797642908015000,6.09801513671875,-0.22246690094470978,-0.24806199967861176,-0.16092470288276672
1772797642918041000,6.108041015625,-0.18725457787513733,-0.20103563368320465,-0.020972659811377525
1772797642928067000,6.118067138671875,-0.13250690698623657,-0.16075399518013,0.06239227205514908
1772797642938094000,6.128093994140625,-0.07784899324178696,-0.14926458895206451,0.1373237669467926
1772797642948120000,6.1381201171875,-0.05604036524891853,-0.16496631503105164,0.27506592869758606
1772797642958146000,6.14814599609375,-0.05116145312786102,-0.14269377291202545,0.4773913323879242
1772797642968172000,6.158172119140625,-0.0411469042301178,-0.11504749208688736,0.5963805913925171
1772797642978199000,6.168198974609375,-0.10112688690423965,-0.08125544339418411,0.5290175080299377
1772797642988225000,6.17822509765625,-0.22182294726371765,0.0881090834736824,0.4099728763103485
1772797642998251000,6.1882509765625,-0.3540659248828888,0.10805723071098328,0.25034192204475403
1772797643008278000,6.198278076171875,-0.49635064601898193,0.03322639688849449,0.16695116460323334
1772797643018304000,6.208303955078125,-0.6004762649536133,-0.007513842545449734,0.3045433759689331
1772797643028330000,6.218330078125,-0.5786314010620117,-0.07050026208162308,0.6224057674407959
1772797643038357000,6.22835693359375,-0.4237408936023712,-0.11150415986776352,0.9482126235961914
1772797643048383000,6.238383056640625,-0.1919957995414734,-0.009135973639786243,1.1395354270935059
1772797643058409000,6.248408935546875,-0.0027166905347257853,0.05950380489230156,1.2006044387817383
1772797643068435000,6.25843505859375,0.13029249012470245,0.05910167098045349,1.1866345405578613
1772797643078462200,6.268462158203125,0.26129791140556335,-0.051292747259140015,1.2111142873764038
1772797643088488200,6.27848828125,0.3108223080635071,-0.2554967403411865,1.2057796716690063
1772797643098514200,6.28851416015625,0.3082108199596405,-0.3726992607116699,1.0067254304885864
1772797643108541000,6.298541015625,0.26343828439712524,-0.19786220788955688,0.6571245789527893
1772797643118567000,6.30856689453125,0.23522929847240448,0.19543048739433289,0.32520684599876404
1772797643128593000,6.318593017578125,0.2683829963207245,0.5162649750709534,0.13464143872261047
1772797643138620200,6.3286201171875,0.3380962908267975,0.5945382118225098,0.08028924465179443
1772797643148646100,6.338646240234375,0.41472822427749634,0.5079729557037354,0.09699632227420807
1772797643158672100,6.348672119140625,0.45820352435112,0.3659164607524872,0.17581923305988312
1772797643168698000,6.358697998046875,0.45000791549682617,0.16492131352424622,0.22497719526290894
1772797643178725000,6.36872509765625,0.40382176637649536,0.0738246887922287,0.22665870189666748
1772797643188751000,6.378751220703125,0.31017038226127625,0.10284009575843811,0.2102232724428177
1772797643198777000,6.388777099609375,0.2246120721101761,0.10743831098079681,0.25676414370536804
1772797643208804000,6.39880419921875,0.14393240213394165,0.033540382981300354,0.35272690653800964
1772797643218830000,6.408830078125,0.07916831970214844,-0.09500321000814438,0.44003862142562866
1772797643228856000,6.41885595703125,0.030724888667464256,-0.20967040956020355,0.45182526111602783
1772797643238883000,6.428883056640625,-0.017595238983631134,-0.27624648809432983,0.3813263177871704
1772797643248909000,6.438908935546875,-0.08499664813280106,-0.34121325612068176,0.2343832105398178
1772797643258935000,6.44893505859375,-0.15443378686904907,-0.38144829869270325,0.06435555219650269
1772797643268961000,6.4589609375,-0.23786848783493042,-0.4105904698371887,-0.09490200877189636
1772797643278988000,6.468988037109375,-0.3158154785633087,-0.44003570079803467,-0.2052767276763916
1772797643289014000,6.479013916015625,-0.3847671151161194,-0.4276503920555115,-0.2875617444515228
1772797643299040000,6.4890400390625,-0.42330998182296753,-0.34531664848327637,-0.3827921152114868
1772797643309067000,6.49906689453125,-0.43549075722694397,-0.24117986857891083,-0.48317331075668335
1772797643319093000,6.509093017578125,-0.4264567792415619,-0.19080351293087006,-0.5941006541252136
1772797643329119000,6.519118896484375,-0.40342095494270325,-0.16156359016895294,-0.6915307641029358
1772797643339146200,6.529146240234375,-0.36979377269744873,-0.15952494740486145,-0.7575470805168152
1772797643349172200,6.539172119140625,-0.3224227726459503,-0.18479515612125397,-0.794327974319458
1772797643359198200,6.5491982421875,-0.2800430953502655,-0.19573915004730225,-0.8319219946861267
1772797643369224200,6.55922412109375,-0.2646409869194031,-0.17104125022888184,-0.9012869596481323
1772797643379251000,6.5692509765625,-0.2720696032047272,-0.1355154812335968,-0.9801735281944275
1772797643389277000,6.57927685546875,-0.2830902934074402,-0.11831066757440567,-1.0155727863311768
1772797643399303000,6.589302978515625,-0.2842801809310913,-0.14797721803188324,-0.9853565692901611
1772797643409330200,6.599330078125,-0.28143832087516785,-0.22668081521987915,-0.9265376925468445
1772797643419356200,6.609356201171875,-0.26715314388275146,-0.32402440905570984,-0.8493531942367554
1772797643429382100,6.619382080078125,-0.25365597009658813,-0.3905600309371948,-0.767494261264801
1772797643439409000,6.629408935546875,-0.22028176486492157,-0.39417019486427307,-0.7072458267211914
1772797643449435000,6.639434814453125,-0.19529971480369568,-0.3803345561027527,-0.659234344959259
1772797643459460900,6.6494609375,-0.17804883420467377,-0.33515989780426025,-0.5910528898239136
1772797643469486800,6.65948681640625,-0.15372751653194427,-0.23645274341106415,-0.5160753130912781
1772797643479514000,6.66951416015625,-0.13735999166965485,-0.06741446256637573,-0.5385894179344177
1772797643489540000,6.6795400390625,-0.13551202416419983,0.05308718606829643,-0.5956902503967285
1772797643499566000,6.689566162109375,-0.13758395612239838,0.16944122314453125,-0.6016046404838562
1772797643509593000,6.699593017578125,-0.15380100905895233,0.33784249424934387,-0.5596638321876526
1772797643519619000,6.709619140625,-0.2302316129207611,0.46097293496131897,-0.48576030135154724
1772797643529645000,6.71964501953125,-0.3380635380744934,0.4852396547794342,-0.46897920966148376
1772797643539671000,6.729671142578125,-0.4692516326904297,0.4257563650608063,-0.9873986840248108
1772797643549698000,6.739697998046875,-0.6350443363189697,0.3306639492511749,-2.5448038578033447
1772797643559724000,6.74972412109375,-0.7963970303535461,0.6888183355331421,-4.395033836364746
1772797643569750000,6.75975,-0.9937263131141663,1.1841732263565063,-5.281504154205322
1772797643579777000,6.769777099609375,-1.1250829696655273,1.214289903640747,-4.391022205352783
1772797643589803000,6.779802978515625,-0.8786450028419495,1.109463095664978,-2.2697887420654297
1772797643599829000,6.7898291015625,-0.3470197319984436,0.9321947693824768,-0.28925737738609314
1772797643609855200,6.799855224609375,0.15565404295921326,0.8672978281974792,0.9270051121711731
1772797643619882000,6.809882080078125,0.6248926520347595,0.7041152715682983,1.7256731986999512
1772797643629908000,6.819907958984375,0.8949264883995056,0.27076998353004456,2.393580436706543
1772797643639934000,6.829933837890625,0.8755634427070618,0.018865566700696945,2.8514270782470703
1772797643649961000,6.8399609375,0.6946408152580261,0.07245342433452606,2.934966564178467
1772797643659987000,6.849987060546875,0.42792871594429016,0.41634130477905273,2.4394595623016357
1772797643670013400,6.860013427734375,0.03340642526745796,0.7609418034553528,1.8220189809799194
1772797643680040400,6.87004052734375,-0.2557196617126465,0.7820492386817932,1.490843415260315
1772797643690066400,6.88006640625,-0.3896753191947937,0.580547571182251,1.3925904035568237
1772797643700092400,6.890092529296875,-0.43980294466018677,0.3385825753211975,1.357969045639038
1772797643710118700,6.90011865234375,-0.5182077288627625,0.2461186945438385,1.2348872423171997
1772797643720145400,6.9101455078125,-0.5838900804519653,0.36438700556755066,1.0569742918014526
1772797643730171400,6.92017138671875,-0.6049511432647705,0.40609636902809143,0.9843413233757019
1772797643740197400,6.930197265625,-0.6000450849533081,0.35103073716163635,1.0141277313232422
1772797643750224400,6.940224365234375,-0.5699667930603027,0.18654271960258484,1.1221301555633545
1772797643760250400,6.95025048828125,-0.5284941792488098,-0.007591607049107552,1.2153743505477905
1772797643770276600,6.960276611328125,-0.49547019600868225,-0.21597836911678314,1.2582283020019531
1772797643780303400,6.970303466796875,-0.4758845269680023,-0.4044353663921356,1.2254661321640015
1772797643790329300,6.980329345703125,-0.49389734864234924,-0.5786223411560059,1.0298691987991333
1772797643800355300,6.990355224609375,-0.531542956829071,-0.7758797407150269,0.775335431098938
1772797643810381300,7.00038134765625,-0.6046203970909119,-0.9622019529342651,0.5061718225479126
1772797643820408300,7.010408203125,-0.6603819131851196,-1.0690399408340454,0.21998775005340576
1772797643830434300,7.020434326171875,-0.7124754786491394,-1.164703369140625,-0.04014289379119873
1772797643840460500,7.03046044921875,-0.7459942698478699,-1.2714389562606812,-0.26591476798057556
1772797643850487600,7.040487548828125,-0.7504599094390869,-1.3111202716827393,-0.4608459174633026
1772797643860513500,7.050513427734375,-0.7293825745582581,-1.2411209344863892,-0.6372664570808411
1772797643870539500,7.06053955078125,-0.6810062527656555,-1.1272995471954346,-0.8401138782501221
1772797643880565500,7.0705654296875,-0.6453254818916321,-0.985903799533844,-1.0299490690231323
1772797643890592300,7.08059228515625,-0.6211543679237366,-0.8681724071502686,-1.2023231983184814
1772797643900618500,7.090618408203125,-0.6243040561676025,-0.7355315089225769,-1.3323800563812256
1772797643910644500,7.10064453125,-0.6400817036628723,-0.6197543144226074,-1.3928066492080688
1772797643920671500,7.11067138671875,-0.6629816889762878,-0.5160683989524841,-1.3997303247451782
1772797643930697500,7.120697509765625,-0.6823543310165405,-0.4418964385986328,-1.3769587278366089
1772797643940723500,7.130723388671875,-0.6809364557266235,-0.43269896507263184,-1.3516594171524048
1772797643950749400,7.14074951171875,-0.6677759289741516,-0.4315527379512787,-1.332349419593811
1772797643960776400,7.1507763671875,-0.6266588568687439,-0.40161508321762085,-1.3025363683700562
1772797643970802400,7.160802490234375,-0.5631770491600037,-0.37707456946372986,-1.2754511833190918
1772797643980828400,7.170828369140625,-0.46492746472358704,-0.3821724057197571,-1.2183517217636108
1772797643990855400,7.18085546875,-0.3920295536518097,-0.40191200375556946,-1.093650221824646
1772797644000881400,7.19088134765625,-0.3766724467277527,-0.3709418475627899,-0.9262477159500122
1772797644010907400,7.200907470703125,-0.38620415329933167,-0.34565672278404236,-0.8024221658706665
1772797644020933400,7.210933349609375,-0.4424935281276703,-0.300849586725235,-0.7802596092224121
1772797644030960400,7.22096044921875,-0.5070208311080933,-0.19563740491867065,-0.8084294199943542
1772797644040986600,7.230986572265625,-0.5791445970535278,-0.13882499933242798,-0.8391934633255005
1772797644051012600,7.2410126953125,-0.6399911642074585,-0.08413298428058624,-0.8573072552680969
1772797644061039400,7.251039306640625,-0.7249467968940735,-0.11762943118810654,-0.9033908247947693
1772797644071065300,7.2610654296875,-0.8182024359703064,-0.1694268435239792,-0.9271891117095947
1772797644081091300,7.27109130859375,-0.7816652059555054,-0.18126513063907623,-1.3623578548431396
1772797644091117300,7.281117431640625,-0.6091091632843018,-0.07574855536222458,-2.6715073585510254
1772797644101144600,7.29114453125,-0.5813395380973816,0.6987798810005188,-3.7821547985076904
1772797644111170600,7.301170654296875,-0.7315234541893005,1.1416529417037964,-2.2053894996643066
1772797644121196500,7.311196533203125,-1.112323522567749,1.1905107498168945,0.9203677177429199
1772797644131223600,7.3212236328125,-1.03534996509552,0.15108458697795868,3.488464117050171
1772797644141249500,7.33124951171875,-0.9078188538551331,-0.9883068203926086,5.151991844177246
1772797644151275500,7.341275634765625,-0.8049265742301941,-1.0879191160202026,5.424590587615967
1772797644161302300,7.35130224609375,-0.9661996364593506,-0.3879533112049103,4.53012752532959
1772797644171328500,7.36132861328125,-1.2884753942489624,0.5317041277885437,3.2843668460845947
1772797644181354500,7.3713544921875,-1.6265636682510376,1.3456364870071411,2.4833836555480957
1772797644191380500,7.38138037109375,-1.839258074760437,1.7430402040481567,2.0944533348083496
1772797644201407500,7.391407470703125,-1.9047521352767944,1.7587721347808838,1.8301492929458618
1772797644211433500,7.40143359375,-1.8675249814987183,1.469987154006958,1.5946435928344727
1772797644221459500,7.41145947265625,-1.8215001821517944,1.2673008441925049,1.316964030265808
1772797644231486200,7.421486328125,-1.8281769752502441,1.2048670053482056,1.0211094617843628
1772797644241512400,7.431512451171875,-1.831852674484253,1.323526382446289,0.7727087140083313
1772797644251538400,7.441538330078125,-1.7581545114517212,1.2837477922439575,0.5664599537849426
1772797644261564400,7.451564453125,-1.6660064458847046,1.105974555015564,0.5217750668525696
1772797644271591400,7.46159130859375,-1.5154027938842773,0.6068108081817627,0.6479116678237915
1772797644281617400,7.471617431640625,-1.4309055805206299,0.15305718779563904,0.8687297701835632
1772797644291643400,7.481643310546875,-1.4208563566207886,-0.2476968765258789,0.952268123626709
1772797644301670700,7.491670654296875,-1.4369746446609497,-0.6278409957885742,0.999862015247345
1772797644311696600,7.501696533203125,-1.5033490657806396,-0.9640592336654663,0.9639010429382324
1772797644321722600,7.51172265625,-1.5910542011260986,-1.243662714958191,0.7971951365470886
1772797644331748600,7.52174853515625,-1.6789709329605103,-1.307173490524292,0.5478945374488831
1772797644341775400,7.531775390625,-1.7422186136245728,-1.2388838529586792,0.24754588305950165
1772797644351801300,7.54180126953125,-1.7777044773101807,-1.1145997047424316,-0.14498355984687805
1772797644361827300,7.551827392578125,-1.7572077512741089,-0.9770908951759338,-0.45241352915763855
1772797644371854600,7.5618544921875,-1.7011929750442505,-0.8833423256874084,-0.6369234919548035
1772797644381880600,7.571880615234375,-1.6373199224472046,-0.8712251782417297,-0.6665884256362915
1772797644391906600,7.581906494140625,-1.5975533723831177,-0.9179841876029968,-0.6332469582557678
1772797644401932500,7.5919326171875,-1.5979282855987549,-0.9263076186180115,-0.6537413001060486
1772797644411959300,7.601959228515625,-1.614633560180664,-0.8661220073699951,-0.7552937865257263
1772797644421985300,7.6119853515625,-1.6783555746078491,-0.7397528886795044,-0.9040928483009338
1772797644432011300,7.62201123046875,-1.7302967309951782,-0.6673780679702759,-1.0548213720321655
1772797644442038500,7.63203857421875,-1.7475993633270264,-0.7129833698272705,-1.159978985786438
1772797644452064500,7.642064453125,-1.7170387506484985,-0.8429059386253357,-1.1725258827209473
1772797644462090500,7.652090576171875,-1.6620993614196777,-0.9577017426490784,-1.1106462478637695
1772797644472116500,7.662116455078125,-1.6015195846557617,-1.03939688205719,-1.0332657098770142
1772797644482143500,7.6721435546875,-1.587977409362793,-1.0505975484848022,-0.9906466603279114
1772797644492169500,7.68216943359375,-1.635425329208374,-1.0429253578186035,-0.9971327781677246
1772797644502195500,7.692195556640625,-1.7599962949752808,-0.9732535481452942,-1.0190333127975464
1772797644512222500,7.702222412109375,-1.9100902080535889,-0.90535968542099,-1.0239052772521973
1772797644522248400,7.71224853515625,-2.034919500350952,-0.8867098689079285,-0.9630770683288574
1772797644532274400,7.7222744140625,-2.094714879989624,-0.8887242674827576,-0.8437288403511047
1772797644542300400,7.732300537109375,-2.1009674072265625,-0.8711128234863281,-0.6976754665374756
1772797644552327400,7.742327392578125,-2.030104875564575,-0.7730799913406372,-0.6190930604934692
1772797644562353400,7.752353515625,-1.9067682027816772,-0.615891695022583,-0.6169116497039795
1772797644572379400,7.76237939453125,-1.8620308637619019,-0.48454058170318604,-0.7842096090316772
1772797644582405400,7.7724052734375,-1.815944790840149,-0.3318045735359192,-1.2345714569091797
1772797644592432400,7.782432373046875,-1.8211171627044678,-0.1230606809258461,-2.0600929260253906
1772797644602458400,7.792458251953125,-1.876025676727295,-0.10129279643297195,-2.858288288116455
1772797644612484400,7.802484375,-2.1086790561676025,0.4048689305782318,-3.2957723140716553
1772797644622511400,7.812511474609375,-2.4420716762542725,0.790744423866272,-2.3344528675079346
1772797644632537300,7.822537353515625,-2.2988274097442627,0.3416809141635895,0.08500304073095322
1772797644642563300,7.832563232421875,-1.9233442544937134,-0.6165436506271362,2.3202853202819824
1772797644652589300,7.84258935546875,-1.6662077903747559,-1.5446640253067017,4.061344146728516
1772797644662616600,7.852616455078125,-1.5524144172668457,-1.9291722774505615,4.779987335205078
1772797644672642000,7.86264208984375,-1.9056499004364014,-1.5524777173995972,4.2719340324401855
1772797644682668000,7.87266796875,-2.364558219909668,-0.8958106637001038,3.208824634552002
1772797644692694800,7.88269482421875,-2.7495903968811035,-0.5429839491844177,2.4163167476654053
1772797644702720800,7.892720703125,-2.9482638835906982,-0.48214054107666016,2.065988540649414
1772797644712746800,7.902746826171875,-2.8893933296203613,-0.4513480067253113,1.9588301181793213
1772797644722772700,7.912772705078125,-2.718958616256714,-0.520409882068634,1.9108343124389648
1772797644732800000,7.922800048828125,-2.5422565937042236,-0.529516339302063,1.790096402168274
1772797644742826000,7.932825927734375,-2.390380382537842,-0.32160520553588867,1.5324084758758545
1772797644752852000,7.94285205078125,-2.295006275177002,-0.0734262764453888,1.2465463876724243
1772797644762879000,7.95287890625,-2.2013351917266846,-0.02244751900434494,0.9668827056884766
1772797644772905000,7.962905029296875,-2.0995304584503174,-0.17837479710578918,0.82398521900177
1772797644782931000,7.972930908203125,-1.9817622900009155,-0.3723738193511963,0.7799338698387146
1772797644792957000,7.98295703125,-1.8511848449707031,-0.531546413898468,0.8030181527137756
1772797644802984000,7.99298388671875,-1.7449865341186523,-0.5983374714851379,0.8888036608695984
1772797644813010000,8.003010009765624,-1.6222009658813477,-0.6568074226379395,0.9392079710960388
1772797644823036000,8.013035888671874,-1.5113582611083984,-0.7589417695999146,0.9749659299850464
1772797644833063000,8.02306298828125,-1.4147393703460693,-0.9012587070465088,0.8624188899993896
1772797644843089000,8.0330888671875,-1.3476295471191406,-1.0338764190673828,0.703978955745697
1772797644853115000,8.043114990234375,-1.3307267427444458,-1.1040589809417725,0.48143959045410156
1772797644863140900,8.053140869140625,-1.338243007659912,-1.1564502716064453,0.188790425658226
1772797644873168000,8.06316796875,-1.3816860914230347,-1.1739329099655151,-0.10461322963237762
1772797644883193900,8.07319384765625,-1.4452091455459595,-1.121215581893921,-0.4030206799507141
1772797644893219800,8.0832197265625,-1.5256251096725464,-0.991723895072937,-0.7109574675559998
1772797644903246800,8.093246826171875,-1.6071231365203857,-0.8693170547485352,-1.004561424255371
1772797644913272800,8.10327294921875,-1.6656376123428345,-0.7761180996894836,-1.2430959939956665
1772797644923298800,8.113298828125,-1.7085336446762085,-0.7462616562843323,-1.3840980529785156
1772797644933324800,8.12332470703125,-1.6976178884506226,-0.7688306570053101,-1.433159589767456
1772797644943352000,8.13335205078125,-1.6739696264266968,-0.8433658480644226,-1.417155385017395
1772797644953378000,8.1433779296875,-1.6772271394729614,-0.9148656129837036,-1.4194145202636719
1772797644963404000,8.153404052734375,-1.720581293106079,-0.8776180744171143,-1.4791958332061768
1772797644973430000,8.163429931640625,-1.7772160768508911,-0.7235528826713562,-1.5288441181182861
1772797644983456800,8.173456787109375,-1.8236885070800781,-0.5382376313209534,-1.5061241388320923
1772797644993482800,8.183482666015625,-1.8522104024887085,-0.4321413040161133,-1.4200968742370605
1772797645003508700,8.1935087890625,-1.8493152856826782,-0.45501306653022766,-1.3218975067138672
1772797645013536000,8.203535888671874,-1.797932505607605,-0.5650913715362549,-1.2015568017959595
1772797645023562000,8.21356201171875,-1.7513806819915771,-0.6867070198059082,-1.052525520324707
1772797645033588000,8.223587890625,-1.7117388248443604,-0.8264755606651306,-0.889732301235199
1772797645043614000,8.233614013671875,-1.7213104963302612,-0.9624589681625366,-0.7174177765846252
1772797645053641000,8.243640869140625,-1.787004828453064,-0.9920509457588196,-0.587418258190155
1772797645063667000,8.2536669921875,-1.8894739151000977,-0.9660512804985046,-0.47933465242385864
1772797645073692700,8.263692626953125,-1.9882172346115112,-0.838920533657074,-0.31110861897468567
1772797645083720000,8.273719970703125,-2.0242087841033936,-0.6746591329574585,-0.07077910006046295
1772797645093746000,8.283745849609375,-1.9788609743118286,-0.5866253972053528,0.21958695352077484
1772797645103772000,8.29377197265625,-1.897671103477478,-0.7453833818435669,0.4272701144218445
1772797645113798000,8.3037978515625,-1.8443373441696167,-0.9922679662704468,0.3409479856491089
1772797645123825000,8.313824951171876,-1.8409053087234497,-1.0651209354400635,-0.05684756860136986
1772797645133851000,8.323850830078126,-1.8789517879486084,-0.9259451627731323,-0.4883454442024231
1772797645143876900,8.333876953125,-1.8746776580810547,-0.9534825086593628,-0.459174245595932
1772797645153903000,8.343903076171875,-1.8198343515396118,-0.8926876187324524,0.07011809945106506
1772797645163929900,8.353929931640625,-1.7273204326629639,-0.7461559176445007,0.800675630569458
1772797645173955800,8.363955810546875,-1.6469675302505493,-0.7661333680152893,1.3588289022445679
1772797645183981800,8.37398193359375,-1.5579380989074707,-0.9242998361587524,1.638098120689392
1772797645194007800,8.3840078125,-1.5779367685317993,-1.09297513961792,1.6316540241241455
1772797645204034800,8.394034912109374,-1.5702452659606934,-1.3219527006149292,1.6889064311981201
1772797645214060800,8.404060791015626,-1.6284945011138916,-1.5090075731277466,1.398624062538147
1772797645224087000,8.414087158203126,-1.6208075284957886,-1.3200546503067017,0.9349093437194824
1772797645234114000,8.424114013671876,-1.589768648147583,-0.9446128606796265,0.6041995882987976
1772797645244140000,8.43414013671875,-1.5934633016586304,-0.7006435990333557,0.5005722641944885
1772797645254165800,8.444165771484375,-1.5543949604034424,-0.5886653661727905,0.406570166349411
1772797645264191700,8.454191650390625,-1.534188985824585,-0.44355958700180054,0.3114846646785736
1772797645274218800,8.46421875,-1.5236245393753052,-0.3554297387599945,0.29594695568084717
1772797645284244700,8.47424462890625,-1.5096155405044556,-0.44152387976646423,0.3649420142173767
1772797645294271000,8.48427099609375,-1.460126280784607,-0.5908364057540894,0.4011141359806061
1772797645304298000,8.494298095703124,-1.389817714691162,-0.6794450879096985,0.49876800179481506
